Block;Word;Category;CorrResp;trials.thisRepN;trials.thisTrialN;trials.thisN;trials.thisIndex;key_resp_2.keys;key_resp_2.corr;key_resp_2.rt;session;participant;date;expName;frameRate;
1;STADT;Gemacht;p;0;0;0;6;p;1;0.6356398549978621;002;11114873;2019_Jun_04_1436;iat_vr;59.841091978919785;
1;WASSER;Natur;q;0;1;1;1;q;1;0.5520008419989608;002;11114873;2019_Jun_04_1436;iat_vr;59.841091978919785;
1;GEBÄUDE;Gemacht;p;0;2;2;5;p;1;0.5201628459981293;002;11114873;2019_Jun_04_1436;iat_vr;59.841091978919785;
1;BAUM;Natur;q;0;3;3;0;q;1;0.5196090940007707;002;11114873;2019_Jun_04_1436;iat_vr;59.841091978919785;
1;STEIN;Natur;q;0;4;4;4;p;0;0.5360348189933575;002;11114873;2019_Jun_04_1436;iat_vr;59.841091978919785;
1;KLEIDER;Gemacht;p;0;5;5;7;p;1;0.7210515840051812;002;11114873;2019_Jun_04_1436;iat_vr;59.841091978919785;
1;COMPUTER;Gemacht;p;0;6;6;8;p;1;0.5873700299998745;002;11114873;2019_Jun_04_1436;iat_vr;59.841091978919785;
1;BLUME;Natur;q;0;7;7;2;q;1;0.4555291380020208;002;11114873;2019_Jun_04_1436;iat_vr;59.841091978919785;
1;TIER;Natur;q;0;8;8;3;q;1;0.4562908080042689;002;11114873;2019_Jun_04_1436;iat_vr;59.841091978919785;
1;LAMPE;Gemacht;p;0;9;9;9;p;1;0.5395751459946041;002;11114873;2019_Jun_04_1436;iat_vr;59.841091978919785;
1;BAUM;Natur;q;1;0;10;0;q;1;0.5841853239980992;002;11114873;2019_Jun_04_1436;iat_vr;59.841091978919785;
1;STEIN;Natur;q;1;1;11;4;q;1;0.6059269070028677;002;11114873;2019_Jun_04_1436;iat_vr;59.841091978919785;
1;STADT;Gemacht;p;1;2;12;6;p;1;0.5059896810053033;002;11114873;2019_Jun_04_1436;iat_vr;59.841091978919785;
1;GEBÄUDE;Gemacht;p;1;3;13;5;p;1;0.5219171380012995;002;11114873;2019_Jun_04_1436;iat_vr;59.841091978919785;
1;COMPUTER;Gemacht;p;1;4;14;8;p;1;0.6218762489952496;002;11114873;2019_Jun_04_1436;iat_vr;59.841091978919785;
1;TIER;Natur;q;1;5;15;3;q;1;0.47116282200295245;002;11114873;2019_Jun_04_1436;iat_vr;59.841091978919785;
1;LAMPE;Gemacht;p;1;6;16;9;p;1;0.5543585399937001;002;11114873;2019_Jun_04_1436;iat_vr;59.841091978919785;
1;WASSER;Natur;q;1;7;17;1;q;1;0.4552638620007201;002;11114873;2019_Jun_04_1436;iat_vr;59.841091978919785;
1;BLUME;Natur;q;1;8;18;2;q;1;0.5391760479978984;002;11114873;2019_Jun_04_1436;iat_vr;59.841091978919785;
1;KLEIDER;Gemacht;p;1;9;19;7;p;1;0.5392090910027036;002;11114873;2019_Jun_04_1436;iat_vr;59.841091978919785;
;;;;;;;;;;;002;11114873;2019_Jun_04_1436;iat_vr;59.841091978919785;
2;SCHLECHT;negativ;q;0;0;0;1;q;1;0.7878988380034571;002;11114873;2019_Jun_04_1436;iat_vr;59.841091978919785;
2;GUT;positiv;p;0;1;1;9;p;1;0.45530789499753155;002;11114873;2019_Jun_04_1436;iat_vr;59.841091978919785;
2;NEGATIV;negativ;q;0;2;2;2;q;1;0.5217095050029457;002;11114873;2019_Jun_04_1436;iat_vr;59.841091978919785;
2;EINWANDFREI;positiv;p;0;3;3;6;p;1;0.7708509520016378;002;11114873;2019_Jun_04_1436;iat_vr;59.841091978919785;
2;SCHÄDLICH;negativ;q;0;4;4;3;q;1;0.5049439270005678;002;11114873;2019_Jun_04_1436;iat_vr;59.841091978919785;
2;SCHLIMM;negativ;q;0;5;5;0;q;1;0.5220242709983722;002;11114873;2019_Jun_04_1436;iat_vr;59.841091978919785;
2;SCHWACH;negativ;q;0;6;6;4;q;1;0.47238240799924824;002;11114873;2019_Jun_04_1436;iat_vr;59.841091978919785;
2;POSITIV;positiv;p;0;7;7;8;p;1;0.4375807110045571;002;11114873;2019_Jun_04_1436;iat_vr;59.841091978919785;
2;AUSGEZEICHNET;positiv;p;0;8;8;5;p;1;0.6037533119961154;002;11114873;2019_Jun_04_1436;iat_vr;59.841091978919785;
2;HERVORRAGEND;positiv;p;0;9;9;7;p;1;0.5877941840008134;002;11114873;2019_Jun_04_1436;iat_vr;59.841091978919785;
2;NEGATIV;negativ;q;1;0;10;2;q;1;0.5211789890017826;002;11114873;2019_Jun_04_1436;iat_vr;59.841091978919785;
2;POSITIV;positiv;p;1;1;11;8;p;1;0.5050126429996453;002;11114873;2019_Jun_04_1436;iat_vr;59.841091978919785;
2;AUSGEZEICHNET;positiv;p;1;2;12;5;p;1;0.6711430889990879;002;11114873;2019_Jun_04_1436;iat_vr;59.841091978919785;
2;HERVORRAGEND;positiv;p;1;3;13;7;p;1;0.6510238440023386;002;11114873;2019_Jun_04_1436;iat_vr;59.841091978919785;
2;SCHWACH;negativ;q;1;4;14;4;q;1;0.7219863729987992;002;11114873;2019_Jun_04_1436;iat_vr;59.841091978919785;
2;EINWANDFREI;positiv;p;1;5;15;6;p;1;0.5549505170056364;002;11114873;2019_Jun_04_1436;iat_vr;59.841091978919785;
2;SCHLIMM;negativ;q;1;6;16;0;q;1;0.6062776670005405;002;11114873;2019_Jun_04_1436;iat_vr;59.841091978919785;
2;GUT;positiv;p;1;7;17;9;p;1;0.7727150680002524;002;11114873;2019_Jun_04_1436;iat_vr;59.841091978919785;
2;SCHÄDLICH;negativ;q;1;8;18;3;q;1;0.5544559439949808;002;11114873;2019_Jun_04_1436;iat_vr;59.841091978919785;
2;SCHLECHT;negativ;q;1;9;19;1;q;1;0.5553547239978798;002;11114873;2019_Jun_04_1436;iat_vr;59.841091978919785;
;;;;;;;;;;;002;11114873;2019_Jun_04_1436;iat_vr;59.841091978919785;
3;SCHLECHT;negativ;q;0;0;0;1;q;1;0.5717133639991516;002;11114873;2019_Jun_04_1436;iat_vr;59.841091978919785;
3;EINWANDFREI;positiv;p;0;1;1;6;q;0;0.5871696309986874;002;11114873;2019_Jun_04_1436;iat_vr;59.841091978919785;
3;WASSER;Natur;q;0;2;2;11;q;1;0.8555645249944064;002;11114873;2019_Jun_04_1436;iat_vr;59.841091978919785;
3;COMPUTER;Gemacht;p;0;3;3;18;p;1;0.5551439980044961;002;11114873;2019_Jun_04_1436;iat_vr;59.841091978919785;
3;BLUME;Natur;q;0;4;4;12;q;1;0.6062447449949104;002;11114873;2019_Jun_04_1436;iat_vr;59.841091978919785;
3;SCHLIMM;negativ;q;0;5;5;0;q;1;0.5885187910025707;002;11114873;2019_Jun_04_1436;iat_vr;59.841091978919785;
3;TIER;Natur;q;0;6;6;13;q;1;0.6878800949998549;002;11114873;2019_Jun_04_1436;iat_vr;59.841091978919785;
3;STEIN;Natur;q;0;7;7;14;q;1;0.7060799699975178;002;11114873;2019_Jun_04_1436;iat_vr;59.841091978919785;
3;HERVORRAGEND;positiv;p;0;8;8;7;p;1;0.6177071189958951;002;11114873;2019_Jun_04_1436;iat_vr;59.841091978919785;
3;POSITIV;positiv;p;0;9;9;8;p;1;0.5389553239947418;002;11114873;2019_Jun_04_1436;iat_vr;59.841091978919785;
3;LAMPE;Gemacht;p;0;10;10;19;p;1;0.5051481199989212;002;11114873;2019_Jun_04_1436;iat_vr;59.841091978919785;
3;SCHÄDLICH;negativ;q;0;11;11;3;q;1;0.6543820569931995;002;11114873;2019_Jun_04_1436;iat_vr;59.841091978919785;
3;GEBÄUDE;Gemacht;p;0;12;12;15;p;1;0.6054579199990258;002;11114873;2019_Jun_04_1436;iat_vr;59.841091978919785;
3;KLEIDER;Gemacht;p;0;13;13;17;p;1;0.6391720510000596;002;11114873;2019_Jun_04_1436;iat_vr;59.841091978919785;
3;AUSGEZEICHNET;positiv;p;0;14;14;5;p;1;0.6843839880020823;002;11114873;2019_Jun_04_1436;iat_vr;59.841091978919785;
3;SCHWACH;negativ;q;0;15;15;4;q;1;0.6050131150041125;002;11114873;2019_Jun_04_1436;iat_vr;59.841091978919785;
3;GUT;positiv;p;0;16;16;9;p;1;0.7881224640004802;002;11114873;2019_Jun_04_1436;iat_vr;59.841091978919785;
3;STADT;Gemacht;p;0;17;17;16;p;1;0.6550803589998395;002;11114873;2019_Jun_04_1436;iat_vr;59.841091978919785;
3;NEGATIV;negativ;q;0;18;18;2;q;1;0.6216624430016964;002;11114873;2019_Jun_04_1436;iat_vr;59.841091978919785;
3;BAUM;Natur;q;0;19;19;10;q;1;0.6210142749987426;002;11114873;2019_Jun_04_1436;iat_vr;59.841091978919785;
;;;;;;;;;;;002;11114873;2019_Jun_04_1436;iat_vr;59.841091978919785;
4;STADT;Gemacht;p;0;0;0;16;p;1;1.371413560002111;002;11114873;2019_Jun_04_1436;iat_vr;59.841091978919785;
4;AUSGEZEICHNET;positiv;p;0;1;1;5;p;1;0.8214728610037128;002;11114873;2019_Jun_04_1436;iat_vr;59.841091978919785;
4;COMPUTER;Gemacht;p;0;2;2;18;p;1;0.6060472090030089;002;11114873;2019_Jun_04_1436;iat_vr;59.841091978919785;
4;HERVORRAGEND;positiv;p;0;3;3;7;p;1;0.5877714320013183;002;11114873;2019_Jun_04_1436;iat_vr;59.841091978919785;
4;WASSER;Natur;q;0;4;4;11;q;1;0.5217026059981436;002;11114873;2019_Jun_04_1436;iat_vr;59.841091978919785;
4;SCHLIMM;negativ;q;0;5;5;0;q;1;0.5220682229992235;002;11114873;2019_Jun_04_1436;iat_vr;59.841091978919785;
4;TIER;Natur;q;0;6;6;13;q;1;0.6395241279969923;002;11114873;2019_Jun_04_1436;iat_vr;59.841091978919785;
4;STEIN;Natur;q;0;7;7;14;q;1;0.589362271995924;002;11114873;2019_Jun_04_1436;iat_vr;59.841091978919785;
4;EINWANDFREI;positiv;p;0;8;8;6;p;1;0.6210709719962324;002;11114873;2019_Jun_04_1436;iat_vr;59.841091978919785;
4;GEBÄUDE;Gemacht;p;0;9;9;15;q;0;0.5391689030002453;002;11114873;2019_Jun_04_1436;iat_vr;59.841091978919785;
4;BLUME;Natur;q;0;10;10;12;q;1;0.5727376960057882;002;11114873;2019_Jun_04_1436;iat_vr;59.841091978919785;
4;LAMPE;Gemacht;p;0;11;11;19;p;1;0.5525293690006947;002;11114873;2019_Jun_04_1436;iat_vr;59.841091978919785;
4;POSITIV;positiv;p;0;12;12;8;p;1;0.6055335810015094;002;11114873;2019_Jun_04_1436;iat_vr;59.841091978919785;
4;SCHÄDLICH;negativ;q;0;13;13;3;q;1;0.6220132150046993;002;11114873;2019_Jun_04_1436;iat_vr;59.841091978919785;
4;BAUM;Natur;q;0;14;14;10;q;1;0.6065449410016299;002;11114873;2019_Jun_04_1436;iat_vr;59.841091978919785;
4;KLEIDER;Gemacht;p;0;15;15;17;p;1;1.139123588000075;002;11114873;2019_Jun_04_1436;iat_vr;59.841091978919785;
4;GUT;positiv;p;0;16;16;9;p;1;0.5045143609968363;002;11114873;2019_Jun_04_1436;iat_vr;59.841091978919785;
4;SCHLECHT;negativ;q;0;17;17;1;q;1;0.5387105599947972;002;11114873;2019_Jun_04_1436;iat_vr;59.841091978919785;
4;NEGATIV;negativ;q;0;18;18;2;q;1;0.47126466700137826;002;11114873;2019_Jun_04_1436;iat_vr;59.841091978919785;
4;SCHWACH;negativ;q;0;19;19;4;q;1;0.5389862729934976;002;11114873;2019_Jun_04_1436;iat_vr;59.841091978919785;
4;STADT;Gemacht;p;1;0;20;16;p;1;0.6560957849942497;002;11114873;2019_Jun_04_1436;iat_vr;59.841091978919785;
4;EINWANDFREI;positiv;p;1;1;21;6;p;1;0.7215354900035891;002;11114873;2019_Jun_04_1436;iat_vr;59.841091978919785;
4;STEIN;Natur;q;1;2;22;14;q;1;0.5890563540015137;002;11114873;2019_Jun_04_1436;iat_vr;59.841091978919785;
4;AUSGEZEICHNET;positiv;p;1;3;23;5;p;1;0.5878860689990688;002;11114873;2019_Jun_04_1436;iat_vr;59.841091978919785;
4;TIER;Natur;q;1;4;24;13;q;1;0.5377319750041352;002;11114873;2019_Jun_04_1436;iat_vr;59.841091978919785;
4;SCHLECHT;negativ;q;1;5;25;1;q;1;0.4556789550042595;002;11114873;2019_Jun_04_1436;iat_vr;59.841091978919785;
4;NEGATIV;negativ;q;1;6;26;2;q;1;0.4387964089983143;002;11114873;2019_Jun_04_1436;iat_vr;59.841091978919785;
4;GUT;positiv;p;1;7;27;9;p;1;0.48692297199886525;002;11114873;2019_Jun_04_1436;iat_vr;59.841091978919785;
4;SCHÄDLICH;negativ;q;1;8;28;3;q;1;0.5205935100020724;002;11114873;2019_Jun_04_1436;iat_vr;59.841091978919785;
4;KLEIDER;Gemacht;p;1;9;29;17;p;1;0.47215679199871374;002;11114873;2019_Jun_04_1436;iat_vr;59.841091978919785;
4;POSITIV;positiv;p;1;10;30;8;p;1;0.5558219070007908;002;11114873;2019_Jun_04_1436;iat_vr;59.841091978919785;
4;COMPUTER;Gemacht;p;1;11;31;18;p;1;0.7048823970035301;002;11114873;2019_Jun_04_1436;iat_vr;59.841091978919785;
4;SCHWACH;negativ;q;1;12;32;4;q;1;0.6020229569985531;002;11114873;2019_Jun_04_1436;iat_vr;59.841091978919785;
4;HERVORRAGEND;positiv;p;1;13;33;7;p;1;0.5712341649996233;002;11114873;2019_Jun_04_1436;iat_vr;59.841091978919785;
4;SCHLIMM;negativ;q;1;14;34;0;q;1;0.46831837100035045;002;11114873;2019_Jun_04_1436;iat_vr;59.841091978919785;
4;BAUM;Natur;q;1;15;35;10;q;1;0.5545699180001975;002;11114873;2019_Jun_04_1436;iat_vr;59.841091978919785;
4;BLUME;Natur;q;1;16;36;12;q;1;0.5226651650009444;002;11114873;2019_Jun_04_1436;iat_vr;59.841091978919785;
4;WASSER;Natur;q;1;17;37;11;q;1;0.5885952560056467;002;11114873;2019_Jun_04_1436;iat_vr;59.841091978919785;
4;GEBÄUDE;Gemacht;p;1;18;38;15;p;1;0.5220770160012762;002;11114873;2019_Jun_04_1436;iat_vr;59.841091978919785;
4;LAMPE;Gemacht;p;1;19;39;19;p;1;0.5226470449997578;002;11114873;2019_Jun_04_1436;iat_vr;59.841091978919785;
;;;;;;;;;;;002;11114873;2019_Jun_04_1436;iat_vr;59.841091978919785;
5;STADT;Gemacht;q;0;0;0;6;q;1;0.551676110997505;002;11114873;2019_Jun_04_1436;iat_vr;59.841091978919785;
5;GEBÄUDE;Gemacht;q;0;1;1;5;q;1;0.5554738609935157;002;11114873;2019_Jun_04_1436;iat_vr;59.841091978919785;
5;BLUME;Natur;p;0;2;2;2;p;1;0.6056492119969334;002;11114873;2019_Jun_04_1436;iat_vr;59.841091978919785;
5;BAUM;Natur;p;0;3;3;0;p;1;0.5024277520060423;002;11114873;2019_Jun_04_1436;iat_vr;59.841091978919785;
5;TIER;Natur;p;0;4;4;3;p;1;1.0533853650049423;002;11114873;2019_Jun_04_1436;iat_vr;59.841091978919785;
5;LAMPE;Gemacht;q;0;5;5;9;q;1;0.6557867719966453;002;11114873;2019_Jun_04_1436;iat_vr;59.841091978919785;
5;STEIN;Natur;p;0;6;6;4;p;1;0.672762996997335;002;11114873;2019_Jun_04_1436;iat_vr;59.841091978919785;
5;WASSER;Natur;p;0;7;7;1;p;1;0.6890659470009268;002;11114873;2019_Jun_04_1436;iat_vr;59.841091978919785;
5;COMPUTER;Gemacht;q;0;8;8;8;q;1;0.60171933699894;002;11114873;2019_Jun_04_1436;iat_vr;59.841091978919785;
5;KLEIDER;Gemacht;q;0;9;9;7;q;1;0.788920393002627;002;11114873;2019_Jun_04_1436;iat_vr;59.841091978919785;
5;COMPUTER;Gemacht;q;1;0;10;8;q;1;0.47139699699619086;002;11114873;2019_Jun_04_1436;iat_vr;59.841091978919785;
5;STADT;Gemacht;q;1;1;11;6;q;1;0.439326797000831;002;11114873;2019_Jun_04_1436;iat_vr;59.841091978919785;
5;BLUME;Natur;p;1;2;12;2;p;1;0.4560677640038193;002;11114873;2019_Jun_04_1436;iat_vr;59.841091978919785;
5;WASSER;Natur;p;1;3;13;1;p;1;0.8049259110048297;002;11114873;2019_Jun_04_1436;iat_vr;59.841091978919785;
5;TIER;Natur;p;1;4;14;3;p;1;0.5221055880028871;002;11114873;2019_Jun_04_1436;iat_vr;59.841091978919785;
5;GEBÄUDE;Gemacht;q;1;5;15;5;q;1;0.5379457689996343;002;11114873;2019_Jun_04_1436;iat_vr;59.841091978919785;
5;BAUM;Natur;p;1;6;16;0;p;1;0.6375917049954296;002;11114873;2019_Jun_04_1436;iat_vr;59.841091978919785;
5;STEIN;Natur;p;1;7;17;4;p;1;0.605654915998457;002;11114873;2019_Jun_04_1436;iat_vr;59.841091978919785;
5;LAMPE;Gemacht;q;1;8;18;9;q;1;0.572242162998009;002;11114873;2019_Jun_04_1436;iat_vr;59.841091978919785;
5;KLEIDER;Gemacht;q;1;9;19;7;q;1;0.42114320499968017;002;11114873;2019_Jun_04_1436;iat_vr;59.841091978919785;
;;;;;;;;;;;002;11114873;2019_Jun_04_1436;iat_vr;59.841091978919785;
6;WASSER;Natur;p;0;0;0;1;p;1;0.9048018579997006;002;11114873;2019_Jun_04_1436;iat_vr;59.841091978919785;
6;BAUM;Natur;p;0;1;1;0;p;1;0.6061623909990885;002;11114873;2019_Jun_04_1436;iat_vr;59.841091978919785;
6;BLUME;Natur;p;0;2;2;2;p;1;0.538518519999343;002;11114873;2019_Jun_04_1436;iat_vr;59.841091978919785;
6;GEBÄUDE;Gemacht;q;0;3;3;5;q;1;0.672158658002445;002;11114873;2019_Jun_04_1436;iat_vr;59.841091978919785;
6;KLEIDER;Gemacht;q;0;4;4;7;q;1;0.6385841939991224;002;11114873;2019_Jun_04_1436;iat_vr;59.841091978919785;
6;SCHLIMM;negativ;q;0;5;5;10;q;1;0.4557308639996336;002;11114873;2019_Jun_04_1436;iat_vr;59.841091978919785;
6;SCHÄDLICH;negativ;q;0;6;6;13;q;1;0.45508221899945056;002;11114873;2019_Jun_04_1436;iat_vr;59.841091978919785;
6;NEGATIV;negativ;q;0;7;7;12;q;1;0.604426470999897;002;11114873;2019_Jun_04_1436;iat_vr;59.841091978919785;
6;COMPUTER;Gemacht;q;0;8;8;8;q;1;0.8053057610013639;002;11114873;2019_Jun_04_1436;iat_vr;59.841091978919785;
6;POSITIV;positiv;p;0;9;9;18;p;1;0.6056571199951577;002;11114873;2019_Jun_04_1436;iat_vr;59.841091978919785;
6;HERVORRAGEND;positiv;p;0;10;10;17;p;1;0.7045932179971715;002;11114873;2019_Jun_04_1436;iat_vr;59.841091978919785;
6;GUT;positiv;p;0;11;11;19;p;1;0.5216291270044167;002;11114873;2019_Jun_04_1436;iat_vr;59.841091978919785;
6;TIER;Natur;p;0;12;12;3;p;1;0.6396763670054497;002;11114873;2019_Jun_04_1436;iat_vr;59.841091978919785;
6;STADT;Gemacht;q;0;13;13;6;q;1;0.6191162890027044;002;11114873;2019_Jun_04_1436;iat_vr;59.841091978919785;
6;AUSGEZEICHNET;positiv;p;0;14;14;15;p;1;0.6175959510001121;002;11114873;2019_Jun_04_1436;iat_vr;59.841091978919785;
6;LAMPE;Gemacht;q;0;15;15;9;p;0;0.5059302899971954;002;11114873;2019_Jun_04_1436;iat_vr;59.841091978919785;
6;SCHWACH;negativ;q;0;16;16;14;q;1;0.7557893080011127;002;11114873;2019_Jun_04_1436;iat_vr;59.841091978919785;
6;EINWANDFREI;positiv;p;0;17;17;16;q;0;0.4709332979982719;002;11114873;2019_Jun_04_1436;iat_vr;59.841091978919785;
6;SCHLECHT;negativ;q;0;18;18;11;q;1;0.5851460100020631;002;11114873;2019_Jun_04_1436;iat_vr;59.841091978919785;
6;STEIN;Natur;p;0;19;19;4;p;1;0.47268408800300676;002;11114873;2019_Jun_04_1436;iat_vr;59.841091978919785;
;;;;;;;;;;;002;11114873;2019_Jun_04_1436;iat_vr;59.841091978919785;
7;SCHLECHT;negativ;q;0;0;0;11;q;1;1.0716025799993076;002;11114873;2019_Jun_04_1436;iat_vr;59.841091978919785;
7;SCHWACH;negativ;q;0;1;1;14;q;1;0.5391789369969047;002;11114873;2019_Jun_04_1436;iat_vr;59.841091978919785;
7;STEIN;Natur;p;0;2;2;4;p;1;0.6225832229974912;002;11114873;2019_Jun_04_1436;iat_vr;59.841091978919785;
7;GUT;positiv;p;0;3;3;19;p;1;0.47257592599635245;002;11114873;2019_Jun_04_1436;iat_vr;59.841091978919785;
7;KLEIDER;Gemacht;q;0;4;4;7;q;1;0.5884722339978907;002;11114873;2019_Jun_04_1436;iat_vr;59.841091978919785;
7;NEGATIV;negativ;q;0;5;5;12;q;1;0.6056440050015226;002;11114873;2019_Jun_04_1436;iat_vr;59.841091978919785;
7;AUSGEZEICHNET;positiv;p;0;6;6;15;p;1;0.5872784640014288;002;11114873;2019_Jun_04_1436;iat_vr;59.841091978919785;
7;HERVORRAGEND;positiv;p;0;7;7;17;p;1;0.588144089000707;002;11114873;2019_Jun_04_1436;iat_vr;59.841091978919785;
7;LAMPE;Gemacht;q;0;8;8;9;q;1;0.7391774409989011;002;11114873;2019_Jun_04_1436;iat_vr;59.841091978919785;
7;WASSER;Natur;p;0;9;9;1;p;1;0.6041190629985067;002;11114873;2019_Jun_04_1436;iat_vr;59.841091978919785;
7;SCHÄDLICH;negativ;q;0;10;10;13;q;1;0.5717443879984785;002;11114873;2019_Jun_04_1436;iat_vr;59.841091978919785;
7;STADT;Gemacht;q;0;11;11;6;p;0;0.506247783996514;002;11114873;2019_Jun_04_1436;iat_vr;59.841091978919785;
7;BLUME;Natur;p;0;12;12;2;p;1;0.6894262299974798;002;11114873;2019_Jun_04_1436;iat_vr;59.841091978919785;
7;SCHLIMM;negativ;q;0;13;13;10;q;1;0.5888372869958403;002;11114873;2019_Jun_04_1436;iat_vr;59.841091978919785;
7;BAUM;Natur;p;0;14;14;0;p;1;0.5715614059954532;002;11114873;2019_Jun_04_1436;iat_vr;59.841091978919785;
7;TIER;Natur;p;0;15;15;3;p;1;0.737974417002988;002;11114873;2019_Jun_04_1436;iat_vr;59.841091978919785;
7;POSITIV;positiv;p;0;16;16;18;p;1;0.5387016929962556;002;11114873;2019_Jun_04_1436;iat_vr;59.841091978919785;
7;GEBÄUDE;Gemacht;q;0;17;17;5;q;1;0.7386902030048077;002;11114873;2019_Jun_04_1436;iat_vr;59.841091978919785;
7;COMPUTER;Gemacht;q;0;18;18;8;q;1;0.6018788950023009;002;11114873;2019_Jun_04_1436;iat_vr;59.841091978919785;
7;EINWANDFREI;positiv;p;0;19;19;16;p;1;1.1049989940001979;002;11114873;2019_Jun_04_1436;iat_vr;59.841091978919785;
7;SCHLIMM;negativ;q;1;0;20;10;q;1;0.6546628670039354;002;11114873;2019_Jun_04_1436;iat_vr;59.841091978919785;
7;BLUME;Natur;p;1;1;21;2;p;1;0.5548587669982226;002;11114873;2019_Jun_04_1436;iat_vr;59.841091978919785;
7;STEIN;Natur;p;1;2;22;4;p;1;0.7190101029991638;002;11114873;2019_Jun_04_1436;iat_vr;59.841091978919785;
7;GUT;positiv;p;1;3;23;19;p;1;0.6879212510029902;002;11114873;2019_Jun_04_1436;iat_vr;59.841091978919785;
7;WASSER;Natur;p;1;4;24;1;q;0;0.48920714799896814;002;11114873;2019_Jun_04_1436;iat_vr;59.841091978919785;
7;STADT;Gemacht;q;1;5;25;6;q;1;0.6062540109996917;002;11114873;2019_Jun_04_1436;iat_vr;59.841091978919785;
7;SCHÄDLICH;negativ;q;1;6;26;13;q;1;0.4214538540036301;002;11114873;2019_Jun_04_1436;iat_vr;59.841091978919785;
7;NEGATIV;negativ;q;1;7;27;12;q;1;0.47157934599817963;002;11114873;2019_Jun_04_1436;iat_vr;59.841091978919785;
7;HERVORRAGEND;positiv;p;1;8;28;17;p;1;0.5884753630016348;002;11114873;2019_Jun_04_1436;iat_vr;59.841091978919785;
7;GEBÄUDE;Gemacht;q;1;9;29;5;q;1;0.8213299500057474;002;11114873;2019_Jun_04_1436;iat_vr;59.841091978919785;
7;AUSGEZEICHNET;positiv;p;1;10;30;15;p;1;0.6370575260007172;002;11114873;2019_Jun_04_1436;iat_vr;59.841091978919785;
7;SCHLECHT;negativ;q;1;11;31;11;q;1;0.5554812360060168;002;11114873;2019_Jun_04_1436;iat_vr;59.841091978919785;
7;COMPUTER;Gemacht;q;1;12;32;8;q;1;0.6551836380021996;002;11114873;2019_Jun_04_1436;iat_vr;59.841091978919785;
7;KLEIDER;Gemacht;q;1;13;33;7;q;1;0.6717129399985424;002;11114873;2019_Jun_04_1436;iat_vr;59.841091978919785;
7;EINWANDFREI;positiv;p;1;14;34;16;p;1;0.6548192740010563;002;11114873;2019_Jun_04_1436;iat_vr;59.841091978919785;
7;SCHWACH;negativ;q;1;15;35;14;q;1;0.5215688699972816;002;11114873;2019_Jun_04_1436;iat_vr;59.841091978919785;
7;LAMPE;Gemacht;q;1;16;36;9;q;1;0.7220301039997139;002;11114873;2019_Jun_04_1436;iat_vr;59.841091978919785;
7;POSITIV;positiv;p;1;17;37;18;p;1;0.5542857479958911;002;11114873;2019_Jun_04_1436;iat_vr;59.841091978919785;
7;TIER;Natur;p;1;18;38;3;p;1;0.5009832600044319;002;11114873;2019_Jun_04_1436;iat_vr;59.841091978919785;
7;BAUM;Natur;p;1;19;39;0;p;1;0.556064479998895;002;11114873;2019_Jun_04_1436;iat_vr;59.841091978919785;
;;;;;;;;;;;002;11114873;2019_Jun_04_1436;iat_vr;59.841091978919785;
