Block;Word;Category;CorrResp;trials.thisRepN;trials.thisTrialN;trials.thisN;trials.thisIndex;key_resp_2.keys;key_resp_2.corr;key_resp_2.rt;session;participant;date;expName;frameRate;
1;STEIN;Natur;q;0;0;0;4;q;1;0.8209063389986113;002;13109376;2019_May_24_1046;iat_vr;60.32598351762727;
1;STADT;Gemacht;p;0;1;1;6;p;1;0.6376035979992594;002;13109376;2019_May_24_1046;iat_vr;60.32598351762727;
1;KLEIDER;Gemacht;p;0;2;2;7;p;1;0.6375505340001837;002;13109376;2019_May_24_1046;iat_vr;60.32598351762727;
1;BLUME;Natur;q;0;3;3;2;q;1;0.6047547729976941;002;13109376;2019_May_24_1046;iat_vr;60.32598351762727;
1;WASSER;Natur;q;0;4;4;1;q;1;0.6211704569977883;002;13109376;2019_May_24_1046;iat_vr;60.32598351762727;
1;LAMPE;Gemacht;p;0;5;5;9;p;1;0.9552723660017364;002;13109376;2019_May_24_1046;iat_vr;60.32598351762727;
1;GEBÄUDE;Gemacht;p;0;6;6;5;p;1;0.7213659090011788;002;13109376;2019_May_24_1046;iat_vr;60.32598351762727;
1;COMPUTER;Gemacht;p;0;7;7;8;p;1;0.737211555999238;002;13109376;2019_May_24_1046;iat_vr;60.32598351762727;
1;TIER;Natur;q;0;8;8;3;q;1;0.9027601089983364;002;13109376;2019_May_24_1046;iat_vr;60.32598351762727;
1;BAUM;Natur;q;0;9;9;0;q;1;0.58993854900109;002;13109376;2019_May_24_1046;iat_vr;60.32598351762727;
1;COMPUTER;Gemacht;p;1;0;10;8;p;1;1.3217511479997484;002;13109376;2019_May_24_1046;iat_vr;60.32598351762727;
1;BAUM;Natur;q;1;1;11;0;q;1;0.6218385949978256;002;13109376;2019_May_24_1046;iat_vr;60.32598351762727;
1;GEBÄUDE;Gemacht;p;1;2;12;5;p;1;0.6554673059981724;002;13109376;2019_May_24_1046;iat_vr;60.32598351762727;
1;BLUME;Natur;q;1;3;13;2;q;1;0.6059313129990187;002;13109376;2019_May_24_1046;iat_vr;60.32598351762727;
1;STEIN;Natur;q;1;4;14;4;q;1;0.717599928000709;002;13109376;2019_May_24_1046;iat_vr;60.32598351762727;
1;LAMPE;Gemacht;p;1;5;15;9;p;1;0.6674342789992807;002;13109376;2019_May_24_1046;iat_vr;60.32598351762727;
1;STADT;Gemacht;p;1;6;16;6;p;1;0.5718279120010266;002;13109376;2019_May_24_1046;iat_vr;60.32598351762727;
1;WASSER;Natur;q;1;7;17;1;q;1;0.5712900990001799;002;13109376;2019_May_24_1046;iat_vr;60.32598351762727;
1;TIER;Natur;q;1;8;18;3;q;1;0.5873061639977095;002;13109376;2019_May_24_1046;iat_vr;60.32598351762727;
1;KLEIDER;Gemacht;p;1;9;19;7;p;1;0.5388418410002487;002;13109376;2019_May_24_1046;iat_vr;60.32598351762727;
;;;;;;;;;;;002;13109376;2019_May_24_1046;iat_vr;60.32598351762727;
2;SCHÄDLICH;negativ;q;0;0;0;3;q;1;0.5712000049970811;002;13109376;2019_May_24_1046;iat_vr;60.32598351762727;
2;SCHLIMM;negativ;q;0;1;1;0;q;1;0.4715395429993805;002;13109376;2019_May_24_1046;iat_vr;60.32598351762727;
2;GUT;positiv;p;0;2;2;9;p;1;0.4728258229988569;002;13109376;2019_May_24_1046;iat_vr;60.32598351762727;
2;POSITIV;positiv;p;0;3;3;8;p;1;0.5371888950030552;002;13109376;2019_May_24_1046;iat_vr;60.32598351762727;
2;SCHLECHT;negativ;q;0;4;4;1;q;1;0.5719792439995217;002;13109376;2019_May_24_1046;iat_vr;60.32598351762727;
2;SCHWACH;negativ;q;0;5;5;4;q;1;0.6052401640008611;002;13109376;2019_May_24_1046;iat_vr;60.32598351762727;
2;NEGATIV;negativ;q;0;6;6;2;q;1;0.6056081530005031;002;13109376;2019_May_24_1046;iat_vr;60.32598351762727;
2;AUSGEZEICHNET;positiv;p;0;7;7;5;p;1;0.734496652999951;002;13109376;2019_May_24_1046;iat_vr;60.32598351762727;
2;EINWANDFREI;positiv;p;0;8;8;6;p;1;0.7044311649988231;002;13109376;2019_May_24_1046;iat_vr;60.32598351762727;
2;HERVORRAGEND;positiv;p;0;9;9;7;p;1;0.6546796600014204;002;13109376;2019_May_24_1046;iat_vr;60.32598351762727;
2;GUT;positiv;p;1;0;10;9;p;1;0.7377781249997497;002;13109376;2019_May_24_1046;iat_vr;60.32598351762727;
2;SCHLECHT;negativ;q;1;1;11;1;q;1;0.8703980929967656;002;13109376;2019_May_24_1046;iat_vr;60.32598351762727;
2;AUSGEZEICHNET;positiv;p;1;2;12;5;p;1;0.7376821669968194;002;13109376;2019_May_24_1046;iat_vr;60.32598351762727;
2;SCHÄDLICH;negativ;q;1;3;13;3;q;1;0.7217767809997895;002;13109376;2019_May_24_1046;iat_vr;60.32598351762727;
2;SCHWACH;negativ;q;1;4;14;4;q;1;0.588736590998451;002;13109376;2019_May_24_1046;iat_vr;60.32598351762727;
2;SCHLIMM;negativ;q;1;5;15;0;q;1;0.5883280449997983;002;13109376;2019_May_24_1046;iat_vr;60.32598351762727;
2;EINWANDFREI;positiv;p;1;6;16;6;p;1;0.6714771769984509;002;13109376;2019_May_24_1046;iat_vr;60.32598351762727;
2;POSITIV;positiv;p;1;7;17;8;p;1;0.771918647998973;002;13109376;2019_May_24_1046;iat_vr;60.32598351762727;
2;NEGATIV;negativ;q;1;8;18;2;q;1;0.7724994939999306;002;13109376;2019_May_24_1046;iat_vr;60.32598351762727;
2;HERVORRAGEND;positiv;p;1;9;19;7;p;1;0.6214334199976292;002;13109376;2019_May_24_1046;iat_vr;60.32598351762727;
;;;;;;;;;;;002;13109376;2019_May_24_1046;iat_vr;60.32598351762727;
3;BAUM;Natur;q;0;0;0;10;q;1;0.5727902660000836;002;13109376;2019_May_24_1046;iat_vr;60.32598351762727;
3;BLUME;Natur;q;0;1;1;12;q;1;0.6356901809995179;002;13109376;2019_May_24_1046;iat_vr;60.32598351762727;
3;STEIN;Natur;q;0;2;2;14;q;1;0.8227296189979825;002;13109376;2019_May_24_1046;iat_vr;60.32598351762727;
3;POSITIV;positiv;p;0;3;3;8;p;1;0.6384752689991728;002;13109376;2019_May_24_1046;iat_vr;60.32598351762727;
3;SCHLECHT;negativ;q;0;4;4;1;q;1;0.6507672260013351;002;13109376;2019_May_24_1046;iat_vr;60.32598351762727;
3;SCHLIMM;negativ;q;0;5;5;0;q;1;0.672486822000792;002;13109376;2019_May_24_1046;iat_vr;60.32598351762727;
3;AUSGEZEICHNET;positiv;p;0;6;6;5;p;1;0.7673158129982767;002;13109376;2019_May_24_1046;iat_vr;60.32598351762727;
3;TIER;Natur;q;0;7;7;13;q;1;0.7227765110001201;002;13109376;2019_May_24_1046;iat_vr;60.32598351762727;
3;SCHWACH;negativ;q;0;8;8;4;q;1;0.8712931590016524;002;13109376;2019_May_24_1046;iat_vr;60.32598351762727;
3;HERVORRAGEND;positiv;p;0;9;9;7;p;1;0.687564559000748;002;13109376;2019_May_24_1046;iat_vr;60.32598351762727;
3;LAMPE;Gemacht;p;0;10;10;19;p;1;0.9224343719979515;002;13109376;2019_May_24_1046;iat_vr;60.32598351762727;
3;GEBÄUDE;Gemacht;p;0;11;11;15;p;1;0.588447771002393;002;13109376;2019_May_24_1046;iat_vr;60.32598351762727;
3;COMPUTER;Gemacht;p;0;12;12;18;p;1;0.6033171429990034;002;13109376;2019_May_24_1046;iat_vr;60.32598351762727;
3;EINWANDFREI;positiv;p;0;13;13;6;p;1;0.6546200070006307;002;13109376;2019_May_24_1046;iat_vr;60.32598351762727;
3;KLEIDER;Gemacht;p;0;14;14;17;p;1;0.7222253539985104;002;13109376;2019_May_24_1046;iat_vr;60.32598351762727;
3;WASSER;Natur;q;0;15;15;11;q;1;0.587520241002494;002;13109376;2019_May_24_1046;iat_vr;60.32598351762727;
3;GUT;positiv;p;0;16;16;9;q;0;0.8230585230012366;002;13109376;2019_May_24_1046;iat_vr;60.32598351762727;
3;SCHÄDLICH;negativ;q;0;17;17;3;q;1;0.73813328200049;002;13109376;2019_May_24_1046;iat_vr;60.32598351762727;
3;NEGATIV;negativ;q;0;18;18;2;q;1;0.6723456639992946;002;13109376;2019_May_24_1046;iat_vr;60.32598351762727;
3;STADT;Gemacht;p;0;19;19;16;p;1;0.7219569659973786;002;13109376;2019_May_24_1046;iat_vr;60.32598351762727;
;;;;;;;;;;;002;13109376;2019_May_24_1046;iat_vr;60.32598351762727;
4;COMPUTER;Gemacht;p;0;0;0;18;p;1;0.6382644949990208;002;13109376;2019_May_24_1046;iat_vr;60.32598351762727;
4;WASSER;Natur;q;0;1;1;11;q;1;0.6887963819972356;002;13109376;2019_May_24_1046;iat_vr;60.32598351762727;
4;KLEIDER;Gemacht;p;0;2;2;17;p;1;0.8544193279994943;002;13109376;2019_May_24_1046;iat_vr;60.32598351762727;
4;SCHWACH;negativ;q;0;3;3;4;q;1;0.8721960969996871;002;13109376;2019_May_24_1046;iat_vr;60.32598351762727;
4;SCHÄDLICH;negativ;q;0;4;4;3;q;1;0.6043404689989984;002;13109376;2019_May_24_1046;iat_vr;60.32598351762727;
4;BAUM;Natur;q;0;5;5;10;q;1;0.6869880519989238;002;13109376;2019_May_24_1046;iat_vr;60.32598351762727;
4;HERVORRAGEND;positiv;p;0;6;6;7;p;1;0.6208023079998384;002;13109376;2019_May_24_1046;iat_vr;60.32598351762727;
4;TIER;Natur;q;0;7;7;13;q;1;0.8711545349979133;002;13109376;2019_May_24_1046;iat_vr;60.32598351762727;
4;GEBÄUDE;Gemacht;p;0;8;8;15;p;1;0.6719428830001561;002;13109376;2019_May_24_1046;iat_vr;60.32598351762727;
4;SCHLIMM;negativ;q;0;9;9;0;q;1;0.6709741390004638;002;13109376;2019_May_24_1046;iat_vr;60.32598351762727;
4;NEGATIV;negativ;q;0;10;10;2;q;1;0.5891115019985591;002;13109376;2019_May_24_1046;iat_vr;60.32598351762727;
4;STEIN;Natur;q;0;11;11;14;q;1;0.7727074279973749;002;13109376;2019_May_24_1046;iat_vr;60.32598351762727;
4;EINWANDFREI;positiv;p;0;12;12;6;p;1;0.8339383890015597;002;13109376;2019_May_24_1046;iat_vr;60.32598351762727;
4;SCHLECHT;negativ;q;0;13;13;1;q;1;0.7189469939985429;002;13109376;2019_May_24_1046;iat_vr;60.32598351762727;
4;STADT;Gemacht;p;0;14;14;16;p;1;0.9716207269993902;002;13109376;2019_May_24_1046;iat_vr;60.32598351762727;
4;BLUME;Natur;q;0;15;15;12;q;1;0.638619364999613;002;13109376;2019_May_24_1046;iat_vr;60.32598351762727;
4;GUT;positiv;p;0;16;16;9;p;1;0.8556923549986095;002;13109376;2019_May_24_1046;iat_vr;60.32598351762727;
4;POSITIV;positiv;p;0;17;17;8;p;1;0.688707675999467;002;13109376;2019_May_24_1046;iat_vr;60.32598351762727;
4;LAMPE;Gemacht;p;0;18;18;19;p;1;0.785674671002198;002;13109376;2019_May_24_1046;iat_vr;60.32598351762727;
4;AUSGEZEICHNET;positiv;p;0;19;19;5;q;0;0.7872032960003708;002;13109376;2019_May_24_1046;iat_vr;60.32598351762727;
4;HERVORRAGEND;positiv;p;1;0;20;7;p;1;0.8208734239997284;002;13109376;2019_May_24_1046;iat_vr;60.32598351762727;
4;SCHWACH;negativ;q;1;1;21;4;q;1;0.8390344020008342;002;13109376;2019_May_24_1046;iat_vr;60.32598351762727;
4;TIER;Natur;q;1;2;22;13;q;1;1.306327569000132;002;13109376;2019_May_24_1046;iat_vr;60.32598351762727;
4;NEGATIV;negativ;q;1;3;23;2;q;1;0.5722059580002679;002;13109376;2019_May_24_1046;iat_vr;60.32598351762727;
4;COMPUTER;Gemacht;p;1;4;24;18;p;1;0.6875155490015459;002;13109376;2019_May_24_1046;iat_vr;60.32598351762727;
4;SCHÄDLICH;negativ;q;1;5;25;3;q;1;0.8371047200016619;002;13109376;2019_May_24_1046;iat_vr;60.32598351762727;
4;BAUM;Natur;q;1;6;26;10;q;1;0.7561227769983816;002;13109376;2019_May_24_1046;iat_vr;60.32598351762727;
4;AUSGEZEICHNET;positiv;p;1;7;27;5;p;1;0.8716421690005518;002;13109376;2019_May_24_1046;iat_vr;60.32598351762727;
4;KLEIDER;Gemacht;p;1;8;28;17;p;1;1.1218853869977465;002;13109376;2019_May_24_1046;iat_vr;60.32598351762727;
4;BLUME;Natur;q;1;9;29;12;q;1;0.7393794150011672;002;13109376;2019_May_24_1046;iat_vr;60.32598351762727;
4;LAMPE;Gemacht;p;1;10;30;19;p;1;0.6896870450000279;002;13109376;2019_May_24_1046;iat_vr;60.32598351762727;
4;EINWANDFREI;positiv;p;1;11;31;6;p;1;0.8048943100002361;002;13109376;2019_May_24_1046;iat_vr;60.32598351762727;
4;SCHLIMM;negativ;q;1;12;32;0;q;1;0.6547700139999506;002;13109376;2019_May_24_1046;iat_vr;60.32598351762727;
4;STADT;Gemacht;p;1;13;33;16;p;1;0.7390057630000229;002;13109376;2019_May_24_1046;iat_vr;60.32598351762727;
4;STEIN;Natur;q;1;14;34;14;q;1;0.9174994579989288;002;13109376;2019_May_24_1046;iat_vr;60.32598351762727;
4;POSITIV;positiv;p;1;15;35;8;p;1;0.7723311549998471;002;13109376;2019_May_24_1046;iat_vr;60.32598351762727;
4;WASSER;Natur;q;1;16;36;11;p;0;0.7375648880006338;002;13109376;2019_May_24_1046;iat_vr;60.32598351762727;
4;GEBÄUDE;Gemacht;p;1;17;37;15;p;1;0.6710405259982508;002;13109376;2019_May_24_1046;iat_vr;60.32598351762727;
4;GUT;positiv;p;1;18;38;9;p;1;1.0720036960010475;002;13109376;2019_May_24_1046;iat_vr;60.32598351762727;
4;SCHLECHT;negativ;q;1;19;39;1;q;1;0.7019435110014456;002;13109376;2019_May_24_1046;iat_vr;60.32598351762727;
;;;;;;;;;;;002;13109376;2019_May_24_1046;iat_vr;60.32598351762727;
5;STEIN;Natur;p;0;0;0;4;p;1;0.6876185439978144;002;13109376;2019_May_24_1046;iat_vr;60.32598351762727;
5;BAUM;Natur;p;0;1;1;0;p;1;0.519553800997528;002;13109376;2019_May_24_1046;iat_vr;60.32598351762727;
5;WASSER;Natur;p;0;2;2;1;p;1;0.5217902610020246;002;13109376;2019_May_24_1046;iat_vr;60.32598351762727;
5;LAMPE;Gemacht;q;0;3;3;9;q;1;0.5506757299990568;002;13109376;2019_May_24_1046;iat_vr;60.32598351762727;
5;KLEIDER;Gemacht;q;0;4;4;7;q;1;0.5382442089976394;002;13109376;2019_May_24_1046;iat_vr;60.32598351762727;
5;TIER;Natur;p;0;5;5;3;p;1;0.772554728002433;002;13109376;2019_May_24_1046;iat_vr;60.32598351762727;
5;BLUME;Natur;p;0;6;6;2;p;1;0.5388537319995521;002;13109376;2019_May_24_1046;iat_vr;60.32598351762727;
5;STADT;Gemacht;q;0;7;7;6;q;1;0.7542717749965959;002;13109376;2019_May_24_1046;iat_vr;60.32598351762727;
5;COMPUTER;Gemacht;q;0;8;8;8;q;1;0.5384870470006717;002;13109376;2019_May_24_1046;iat_vr;60.32598351762727;
5;GEBÄUDE;Gemacht;q;0;9;9;5;q;1;0.6890608610010531;002;13109376;2019_May_24_1046;iat_vr;60.32598351762727;
5;GEBÄUDE;Gemacht;q;1;0;10;5;q;1;0.5533432529991842;002;13109376;2019_May_24_1046;iat_vr;60.32598351762727;
5;KLEIDER;Gemacht;q;1;1;11;7;q;1;0.9718961329999729;002;13109376;2019_May_24_1046;iat_vr;60.32598351762727;
5;TIER;Natur;p;1;2;12;3;p;1;0.5889079139997193;002;13109376;2019_May_24_1046;iat_vr;60.32598351762727;
5;LAMPE;Gemacht;q;1;3;13;9;q;1;0.6378545599982317;002;13109376;2019_May_24_1046;iat_vr;60.32598351762727;
5;BAUM;Natur;p;1;4;14;0;p;1;0.8207555419976416;002;13109376;2019_May_24_1046;iat_vr;60.32598351762727;
5;STADT;Gemacht;q;1;5;15;6;q;1;0.8383140480000293;002;13109376;2019_May_24_1046;iat_vr;60.32598351762727;
5;STEIN;Natur;p;1;6;16;4;p;1;0.9890590549985063;002;13109376;2019_May_24_1046;iat_vr;60.32598351762727;
5;BLUME;Natur;p;1;7;17;2;p;1;0.6026760439999634;002;13109376;2019_May_24_1046;iat_vr;60.32598351762727;
5;WASSER;Natur;p;1;8;18;1;p;1;0.8885838610003702;002;13109376;2019_May_24_1046;iat_vr;60.32598351762727;
5;COMPUTER;Gemacht;q;1;9;19;8;q;1;0.5713638220004214;002;13109376;2019_May_24_1046;iat_vr;60.32598351762727;
;;;;;;;;;;;002;13109376;2019_May_24_1046;iat_vr;60.32598351762727;
6;GEBÄUDE;Gemacht;q;0;0;0;5;q;1;0.9214775289983663;002;13109376;2019_May_24_1046;iat_vr;60.32598351762727;
6;BLUME;Natur;p;0;1;1;2;p;1;0.6392269939969992;002;13109376;2019_May_24_1046;iat_vr;60.32598351762727;
6;EINWANDFREI;positiv;p;0;2;2;16;p;1;0.8549822990025859;002;13109376;2019_May_24_1046;iat_vr;60.32598351762727;
6;SCHÄDLICH;negativ;q;0;3;3;13;q;1;0.7375319359998684;002;13109376;2019_May_24_1046;iat_vr;60.32598351762727;
6;STADT;Gemacht;q;0;4;4;6;q;1;0.6520425759990758;002;13109376;2019_May_24_1046;iat_vr;60.32598351762727;
6;NEGATIV;negativ;q;0;5;5;12;q;1;0.6879829579993384;002;13109376;2019_May_24_1046;iat_vr;60.32598351762727;
6;STEIN;Natur;p;0;6;6;4;p;1;0.9228487250002217;002;13109376;2019_May_24_1046;iat_vr;60.32598351762727;
6;POSITIV;positiv;p;0;7;7;18;p;1;0.7052123460016446;002;13109376;2019_May_24_1046;iat_vr;60.32598351762727;
6;TIER;Natur;p;0;8;8;3;p;1;0.6397084039999754;002;13109376;2019_May_24_1046;iat_vr;60.32598351762727;
6;SCHLIMM;negativ;q;0;9;9;10;q;1;0.7343747830018401;002;13109376;2019_May_24_1046;iat_vr;60.32598351762727;
6;SCHLECHT;negativ;q;0;10;10;11;q;1;0.6388317219971213;002;13109376;2019_May_24_1046;iat_vr;60.32598351762727;
6;BAUM;Natur;p;0;11;11;0;p;1;0.6896612419986923;002;13109376;2019_May_24_1046;iat_vr;60.32598351762727;
6;GUT;positiv;p;0;12;12;19;p;1;0.6709581649993197;002;13109376;2019_May_24_1046;iat_vr;60.32598351762727;
6;HERVORRAGEND;positiv;p;0;13;13;17;p;1;0.6872932219994254;002;13109376;2019_May_24_1046;iat_vr;60.32598351762727;
6;KLEIDER;Gemacht;q;0;14;14;7;q;1;0.6889483649974864;002;13109376;2019_May_24_1046;iat_vr;60.32598351762727;
6;AUSGEZEICHNET;positiv;p;0;15;15;15;p;1;0.7203719890021603;002;13109376;2019_May_24_1046;iat_vr;60.32598351762727;
6;COMPUTER;Gemacht;q;0;16;16;8;q;1;0.6543832989991643;002;13109376;2019_May_24_1046;iat_vr;60.32598351762727;
6;WASSER;Natur;p;0;17;17;1;p;1;0.6551025430017035;002;13109376;2019_May_24_1046;iat_vr;60.32598351762727;
6;SCHWACH;negativ;q;0;18;18;14;q;1;0.7054411610006355;002;13109376;2019_May_24_1046;iat_vr;60.32598351762727;
6;LAMPE;Gemacht;q;0;19;19;9;q;1;0.7225242089989479;002;13109376;2019_May_24_1046;iat_vr;60.32598351762727;
;;;;;;;;;;;002;13109376;2019_May_24_1046;iat_vr;60.32598351762727;
7;HERVORRAGEND;positiv;p;0;0;0;17;p;1;0.6376367420016322;002;13109376;2019_May_24_1046;iat_vr;60.32598351762727;
7;SCHLIMM;negativ;q;0;1;1;10;q;1;0.6383581669979321;002;13109376;2019_May_24_1046;iat_vr;60.32598351762727;
7;BLUME;Natur;p;0;2;2;2;p;1;0.6386596490010561;002;13109376;2019_May_24_1046;iat_vr;60.32598351762727;
7;POSITIV;positiv;p;0;3;3;18;p;1;0.6389819370015175;002;13109376;2019_May_24_1046;iat_vr;60.32598351762727;
7;SCHLECHT;negativ;q;0;4;4;11;q;1;0.6381387649998942;002;13109376;2019_May_24_1046;iat_vr;60.32598351762727;
7;TIER;Natur;p;0;5;5;3;p;1;0.5897106349984824;002;13109376;2019_May_24_1046;iat_vr;60.32598351762727;
7;WASSER;Natur;p;0;6;6;1;p;1;0.6022358889968018;002;13109376;2019_May_24_1046;iat_vr;60.32598351762727;
7;LAMPE;Gemacht;q;0;7;7;9;q;1;0.6390722040014225;002;13109376;2019_May_24_1046;iat_vr;60.32598351762727;
7;STADT;Gemacht;q;0;8;8;6;q;1;0.6228586969991738;002;13109376;2019_May_24_1046;iat_vr;60.32598351762727;
7;KLEIDER;Gemacht;q;0;9;9;7;q;1;0.6056082360009896;002;13109376;2019_May_24_1046;iat_vr;60.32598351762727;
7;EINWANDFREI;positiv;p;0;10;10;16;p;1;0.5842521869999473;002;13109376;2019_May_24_1046;iat_vr;60.32598351762727;
7;AUSGEZEICHNET;positiv;p;0;11;11;15;p;1;0.5374408460011182;002;13109376;2019_May_24_1046;iat_vr;60.32598351762727;
7;GUT;positiv;p;0;12;12;19;p;1;0.6172042250000231;002;13109376;2019_May_24_1046;iat_vr;60.32598351762727;
7;SCHWACH;negativ;q;0;13;13;14;q;1;0.688891699002852;002;13109376;2019_May_24_1046;iat_vr;60.32598351762727;
7;BAUM;Natur;p;0;14;14;0;p;1;0.7221791390002181;002;13109376;2019_May_24_1046;iat_vr;60.32598351762727;
7;GEBÄUDE;Gemacht;q;0;15;15;5;q;1;0.6058412929996848;002;13109376;2019_May_24_1046;iat_vr;60.32598351762727;
7;COMPUTER;Gemacht;q;0;16;16;8;q;1;0.5719063890028337;002;13109376;2019_May_24_1046;iat_vr;60.32598351762727;
7;SCHÄDLICH;negativ;q;0;17;17;13;q;1;0.6382826420012861;002;13109376;2019_May_24_1046;iat_vr;60.32598351762727;
7;NEGATIV;negativ;q;0;18;18;12;q;1;0.6188374619996466;002;13109376;2019_May_24_1046;iat_vr;60.32598351762727;
7;STEIN;Natur;p;0;19;19;4;q;0;0.7388852389995009;002;13109376;2019_May_24_1046;iat_vr;60.32598351762727;
7;LAMPE;Gemacht;q;1;0;20;9;q;1;0.8894850549986586;002;13109376;2019_May_24_1046;iat_vr;60.32598351762727;
7;SCHLECHT;negativ;q;1;1;21;11;q;1;0.6054240080011368;002;13109376;2019_May_24_1046;iat_vr;60.32598351762727;
7;HERVORRAGEND;positiv;p;1;2;22;17;p;1;0.5376626510005735;002;13109376;2019_May_24_1046;iat_vr;60.32598351762727;
7;KLEIDER;Gemacht;q;1;3;23;7;q;1;0.6540908040005888;002;13109376;2019_May_24_1046;iat_vr;60.32598351762727;
7;GEBÄUDE;Gemacht;q;1;4;24;5;q;1;0.6051599960010208;002;13109376;2019_May_24_1046;iat_vr;60.32598351762727;
7;BLUME;Natur;p;1;5;25;2;p;1;0.555884777000756;002;13109376;2019_May_24_1046;iat_vr;60.32598351762727;
7;EINWANDFREI;positiv;p;1;6;26;16;p;1;0.5872765700005402;002;13109376;2019_May_24_1046;iat_vr;60.32598351762727;
7;TIER;Natur;p;1;7;27;3;p;1;0.572958444001415;002;13109376;2019_May_24_1046;iat_vr;60.32598351762727;
7;BAUM;Natur;p;1;8;28;0;p;1;0.6224535399996967;002;13109376;2019_May_24_1046;iat_vr;60.32598351762727;
7;AUSGEZEICHNET;positiv;p;1;9;29;15;p;1;0.6044983940009843;002;13109376;2019_May_24_1046;iat_vr;60.32598351762727;
7;COMPUTER;Gemacht;q;1;10;30;8;q;1;0.621723041000223;002;13109376;2019_May_24_1046;iat_vr;60.32598351762727;
7;STEIN;Natur;p;1;11;31;4;p;1;0.5891351560021576;002;13109376;2019_May_24_1046;iat_vr;60.32598351762727;
7;SCHÄDLICH;negativ;q;1;12;32;13;q;1;0.7052885060002154;002;13109376;2019_May_24_1046;iat_vr;60.32598351762727;
7;NEGATIV;negativ;q;1;13;33;12;q;1;0.5542328860028647;002;13109376;2019_May_24_1046;iat_vr;60.32598351762727;
7;GUT;positiv;p;1;14;34;19;p;1;0.6017961220022698;002;13109376;2019_May_24_1046;iat_vr;60.32598351762727;
7;POSITIV;positiv;p;1;15;35;18;p;1;0.571460756000306;002;13109376;2019_May_24_1046;iat_vr;60.32598351762727;
7;SCHWACH;negativ;q;1;16;36;14;q;1;0.854061065998394;002;13109376;2019_May_24_1046;iat_vr;60.32598351762727;
7;WASSER;Natur;p;1;17;37;1;p;1;0.5549942319994443;002;13109376;2019_May_24_1046;iat_vr;60.32598351762727;
7;SCHLIMM;negativ;q;1;18;38;10;q;1;0.6049877550030942;002;13109376;2019_May_24_1046;iat_vr;60.32598351762727;
7;STADT;Gemacht;q;1;19;39;6;q;1;0.6383996499971545;002;13109376;2019_May_24_1046;iat_vr;60.32598351762727;
;;;;;;;;;;;002;13109376;2019_May_24_1046;iat_vr;60.32598351762727;
