Block;Word;Category;CorrResp;trials.thisRepN;trials.thisTrialN;trials.thisN;trials.thisIndex;key_resp_2.keys;key_resp_2.corr;key_resp_2.rt;session;participant;date;expName;frameRate;
1;COMPUTER;Gemacht;p;0;0;0;8;p;1;1.7893010150000919;001;14113971;2019_Jun_25_1528;iat_vr;59.92315455441795;
1;BAUM;Natur;q;0;1;1;0;q;1;1.2205113359959796;001;14113971;2019_Jun_25_1528;iat_vr;59.92315455441795;
1;KLEIDER;Gemacht;p;0;2;2;7;p;1;1.2514303179923445;001;14113971;2019_Jun_25_1528;iat_vr;59.92315455441795;
1;WASSER;Natur;q;0;3;3;1;q;1;1.1050158090074547;001;14113971;2019_Jun_25_1528;iat_vr;59.92315455441795;
1;BLUME;Natur;q;0;4;4;2;q;1;1.1049920699733775;001;14113971;2019_Jun_25_1528;iat_vr;59.92315455441795;
1;LAMPE;Gemacht;p;0;5;5;9;p;1;1.3897462440072559;001;14113971;2019_Jun_25_1528;iat_vr;59.92315455441795;
1;STADT;Gemacht;p;0;6;6;6;p;1;1.3062032580201048;001;14113971;2019_Jun_25_1528;iat_vr;59.92315455441795;
1;STEIN;Natur;q;0;7;7;4;q;1;1.0679420090164058;001;14113971;2019_Jun_25_1528;iat_vr;59.92315455441795;
1;GEBÄUDE;Gemacht;p;0;8;8;5;p;1;1.0708309260080568;001;14113971;2019_Jun_25_1528;iat_vr;59.92315455441795;
1;TIER;Natur;q;0;9;9;3;q;1;1.2538026999973226;001;14113971;2019_Jun_25_1528;iat_vr;59.92315455441795;
1;GEBÄUDE;Gemacht;p;1;0;10;5;p;1;0.8390882239909843;001;14113971;2019_Jun_25_1528;iat_vr;59.92315455441795;
1;STADT;Gemacht;p;1;1;11;6;p;1;1.0395489809743594;001;14113971;2019_Jun_25_1528;iat_vr;59.92315455441795;
1;TIER;Natur;q;1;2;12;3;q;1;1.5896885090041906;001;14113971;2019_Jun_25_1528;iat_vr;59.92315455441795;
1;WASSER;Natur;q;1;3;13;1;q;1;1.0883066800015513;001;14113971;2019_Jun_25_1528;iat_vr;59.92315455441795;
1;STEIN;Natur;q;1;4;14;4;q;1;0.7887075769831426;001;14113971;2019_Jun_25_1528;iat_vr;59.92315455441795;
1;COMPUTER;Gemacht;p;1;5;15;8;p;1;0.9386292479757685;001;14113971;2019_Jun_25_1528;iat_vr;59.92315455441795;
1;LAMPE;Gemacht;p;1;6;16;9;p;1;0.7061460789991543;001;14113971;2019_Jun_25_1528;iat_vr;59.92315455441795;
1;KLEIDER;Gemacht;p;1;7;17;7;p;1;0.9389929829922039;001;14113971;2019_Jun_25_1528;iat_vr;59.92315455441795;
1;BAUM;Natur;q;1;8;18;0;q;1;0.9068753980100155;001;14113971;2019_Jun_25_1528;iat_vr;59.92315455441795;
1;BLUME;Natur;q;1;9;19;2;q;1;0.9230427160218824;001;14113971;2019_Jun_25_1528;iat_vr;59.92315455441795;
;;;;;;;;;;;001;14113971;2019_Jun_25_1528;iat_vr;59.92315455441795;
2;EINWANDFREI;positiv;p;0;0;0;6;p;1;1.9882098259986378;001;14113971;2019_Jun_25_1528;iat_vr;59.92315455441795;
2;SCHLIMM;negativ;q;0;1;1;0;q;1;1.0213364550145343;001;14113971;2019_Jun_25_1528;iat_vr;59.92315455441795;
2;SCHLECHT;negativ;q;0;2;2;1;q;1;0.8542271210171748;001;14113971;2019_Jun_25_1528;iat_vr;59.92315455441795;
2;SCHWACH;negativ;q;0;3;3;4;q;1;0.7895495370030403;001;14113971;2019_Jun_25_1528;iat_vr;59.92315455441795;
2;NEGATIV;negativ;q;0;4;4;2;q;1;0.8680953639850486;001;14113971;2019_Jun_25_1528;iat_vr;59.92315455441795;
2;SCHÄDLICH;negativ;q;0;5;5;3;q;1;1.187724273011554;001;14113971;2019_Jun_25_1528;iat_vr;59.92315455441795;
2;HERVORRAGEND;positiv;p;0;6;6;7;p;1;0.7880766649905127;001;14113971;2019_Jun_25_1528;iat_vr;59.92315455441795;
2;AUSGEZEICHNET;positiv;p;0;7;7;5;p;1;0.7543006170017179;001;14113971;2019_Jun_25_1528;iat_vr;59.92315455441795;
2;POSITIV;positiv;p;0;8;8;8;p;1;0.6551371109962929;001;14113971;2019_Jun_25_1528;iat_vr;59.92315455441795;
2;GUT;positiv;p;0;9;9;9;p;1;0.6397009260253981;001;14113971;2019_Jun_25_1528;iat_vr;59.92315455441795;
2;SCHWACH;negativ;q;1;0;10;4;q;1;0.6714563179994002;001;14113971;2019_Jun_25_1528;iat_vr;59.92315455441795;
2;NEGATIV;negativ;q;1;1;11;2;q;1;0.8876852990069892;001;14113971;2019_Jun_25_1528;iat_vr;59.92315455441795;
2;GUT;positiv;p;1;2;12;9;p;1;0.6212955970258918;001;14113971;2019_Jun_25_1528;iat_vr;59.92315455441795;
2;SCHLECHT;negativ;q;1;3;13;1;q;1;0.9887888950179331;001;14113971;2019_Jun_25_1528;iat_vr;59.92315455441795;
2;SCHÄDLICH;negativ;q;1;4;14;3;q;1;0.7551812899764627;001;14113971;2019_Jun_25_1528;iat_vr;59.92315455441795;
2;POSITIV;positiv;p;1;5;15;8;p;1;0.6722542709903792;001;14113971;2019_Jun_25_1528;iat_vr;59.92315455441795;
2;HERVORRAGEND;positiv;p;1;6;16;7;p;1;0.7045556539960671;001;14113971;2019_Jun_25_1528;iat_vr;59.92315455441795;
2;AUSGEZEICHNET;positiv;p;1;7;17;5;p;1;0.6874605600023642;001;14113971;2019_Jun_25_1528;iat_vr;59.92315455441795;
2;SCHLIMM;negativ;q;1;8;18;0;q;1;0.6218296119768638;001;14113971;2019_Jun_25_1528;iat_vr;59.92315455441795;
2;EINWANDFREI;positiv;p;1;9;19;6;p;1;0.6380389069963712;001;14113971;2019_Jun_25_1528;iat_vr;59.92315455441795;
;;;;;;;;;;;001;14113971;2019_Jun_25_1528;iat_vr;59.92315455441795;
3;GUT;positiv;p;0;0;0;9;p;1;1.0548284619871993;001;14113971;2019_Jun_25_1528;iat_vr;59.92315455441795;
3;WASSER;Natur;q;0;1;1;11;q;1;0.9023733350040857;001;14113971;2019_Jun_25_1528;iat_vr;59.92315455441795;
3;KLEIDER;Gemacht;p;0;2;2;17;p;1;1.3564368709921837;001;14113971;2019_Jun_25_1528;iat_vr;59.92315455441795;
3;AUSGEZEICHNET;positiv;p;0;3;3;5;p;1;1.4208904890110716;001;14113971;2019_Jun_25_1528;iat_vr;59.92315455441795;
3;POSITIV;positiv;p;0;4;4;8;p;1;0.7357856029993854;001;14113971;2019_Jun_25_1528;iat_vr;59.92315455441795;
3;SCHLECHT;negativ;q;0;5;5;1;q;1;0.972416449978482;001;14113971;2019_Jun_25_1528;iat_vr;59.92315455441795;
3;EINWANDFREI;positiv;p;0;6;6;6;p;1;1.1549211840028875;001;14113971;2019_Jun_25_1528;iat_vr;59.92315455441795;
3;STADT;Gemacht;p;0;7;7;16;p;1;1.0361483810120262;001;14113971;2019_Jun_25_1528;iat_vr;59.92315455441795;
3;SCHÄDLICH;negativ;q;0;8;8;3;q;1;1.4223964579869062;001;14113971;2019_Jun_25_1528;iat_vr;59.92315455441795;
3;HERVORRAGEND;positiv;p;0;9;9;7;p;1;0.7041838489822112;001;14113971;2019_Jun_25_1528;iat_vr;59.92315455441795;
3;GEBÄUDE;Gemacht;p;0;10;10;15;p;1;0.9551562579872552;001;14113971;2019_Jun_25_1528;iat_vr;59.92315455441795;
3;BAUM;Natur;q;0;11;11;10;q;1;0.7398612370016053;001;14113971;2019_Jun_25_1528;iat_vr;59.92315455441795;
3;BLUME;Natur;q;0;12;12;12;q;1;0.6879703059967142;001;14113971;2019_Jun_25_1528;iat_vr;59.92315455441795;
3;NEGATIV;negativ;q;0;13;13;2;q;1;2.0562596429954283;001;14113971;2019_Jun_25_1528;iat_vr;59.92315455441795;
3;TIER;Natur;q;0;14;14;13;q;1;1.554931308986852;001;14113971;2019_Jun_25_1528;iat_vr;59.92315455441795;
3;LAMPE;Gemacht;p;0;15;15;19;p;1;1.0387920619978104;001;14113971;2019_Jun_25_1528;iat_vr;59.92315455441795;
3;COMPUTER;Gemacht;p;0;16;16;18;p;1;1.6187019890057854;001;14113971;2019_Jun_25_1528;iat_vr;59.92315455441795;
3;SCHWACH;negativ;q;0;17;17;4;q;1;1.1062013629998546;001;14113971;2019_Jun_25_1528;iat_vr;59.92315455441795;
3;SCHLIMM;negativ;q;0;18;18;0;q;1;1.5056872770073824;001;14113971;2019_Jun_25_1528;iat_vr;59.92315455441795;
3;STEIN;Natur;q;0;19;19;14;q;1;0.8728189940156881;001;14113971;2019_Jun_25_1528;iat_vr;59.92315455441795;
;;;;;;;;;;;001;14113971;2019_Jun_25_1528;iat_vr;59.92315455441795;
4;SCHÄDLICH;negativ;q;0;0;0;3;q;1;0.954820924991509;001;14113971;2019_Jun_25_1528;iat_vr;59.92315455441795;
4;POSITIV;positiv;p;0;1;1;8;p;1;0.7049708810227457;001;14113971;2019_Jun_25_1528;iat_vr;59.92315455441795;
4;KLEIDER;Gemacht;p;0;2;2;17;p;1;0.9548534439818468;001;14113971;2019_Jun_25_1528;iat_vr;59.92315455441795;
4;STEIN;Natur;q;0;3;3;14;q;1;0.8893481429840904;001;14113971;2019_Jun_25_1528;iat_vr;59.92315455441795;
4;BAUM;Natur;q;0;4;4;10;q;1;0.872857826994732;001;14113971;2019_Jun_25_1528;iat_vr;59.92315455441795;
4;GEBÄUDE;Gemacht;p;0;5;5;15;p;1;0.7887359269952867;001;14113971;2019_Jun_25_1528;iat_vr;59.92315455441795;
4;SCHLIMM;negativ;q;0;6;6;0;q;1;0.8725555989949498;001;14113971;2019_Jun_25_1528;iat_vr;59.92315455441795;
4;AUSGEZEICHNET;positiv;p;0;7;7;5;p;1;0.9379036269965582;001;14113971;2019_Jun_25_1528;iat_vr;59.92315455441795;
4;TIER;Natur;q;0;8;8;13;q;1;0.856444767996436;001;14113971;2019_Jun_25_1528;iat_vr;59.92315455441795;
4;SCHWACH;negativ;q;0;9;9;4;q;1;0.9216264479910024;001;14113971;2019_Jun_25_1528;iat_vr;59.92315455441795;
4;EINWANDFREI;positiv;p;0;10;10;6;p;1;0.7377662499784492;001;14113971;2019_Jun_25_1528;iat_vr;59.92315455441795;
4;STADT;Gemacht;p;0;11;11;16;p;1;0.9227659569878597;001;14113971;2019_Jun_25_1528;iat_vr;59.92315455441795;
4;COMPUTER;Gemacht;p;0;12;12;18;p;1;0.6551467310055159;001;14113971;2019_Jun_25_1528;iat_vr;59.92315455441795;
4;LAMPE;Gemacht;p;0;13;13;19;p;1;0.5063687180227134;001;14113971;2019_Jun_25_1528;iat_vr;59.92315455441795;
4;GUT;positiv;p;0;14;14;9;p;1;0.6378992020036094;001;14113971;2019_Jun_25_1528;iat_vr;59.92315455441795;
4;WASSER;Natur;q;0;15;15;11;q;1;1.256378533988027;001;14113971;2019_Jun_25_1528;iat_vr;59.92315455441795;
4;BLUME;Natur;q;0;16;16;12;q;1;0.6061497610062361;001;14113971;2019_Jun_25_1528;iat_vr;59.92315455441795;
4;SCHLECHT;negativ;q;0;17;17;1;q;1;0.971574616007274;001;14113971;2019_Jun_25_1528;iat_vr;59.92315455441795;
4;HERVORRAGEND;positiv;p;0;18;18;7;p;1;0.6879048130067531;001;14113971;2019_Jun_25_1528;iat_vr;59.92315455441795;
4;NEGATIV;negativ;q;0;19;19;2;q;1;0.8231803269882221;001;14113971;2019_Jun_25_1528;iat_vr;59.92315455441795;
4;AUSGEZEICHNET;positiv;p;1;0;20;5;p;1;0.7045259209990036;001;14113971;2019_Jun_25_1528;iat_vr;59.92315455441795;
4;STEIN;Natur;q;1;1;21;14;q;1;0.8563011410005856;001;14113971;2019_Jun_25_1528;iat_vr;59.92315455441795;
4;LAMPE;Gemacht;p;1;2;22;19;p;1;0.7220385619730223;001;14113971;2019_Jun_25_1528;iat_vr;59.92315455441795;
4;BAUM;Natur;q;1;3;23;10;q;1;0.9392259320011362;001;14113971;2019_Jun_25_1528;iat_vr;59.92315455441795;
4;SCHLECHT;negativ;q;1;4;24;1;q;1;1.7391547499864828;001;14113971;2019_Jun_25_1528;iat_vr;59.92315455441795;
4;GEBÄUDE;Gemacht;p;1;5;25;15;p;1;1.9026869469962548;001;14113971;2019_Jun_25_1528;iat_vr;59.92315455441795;
4;STADT;Gemacht;p;1;6;26;16;p;1;0.6060067469952628;001;14113971;2019_Jun_25_1528;iat_vr;59.92315455441795;
4;WASSER;Natur;q;1;7;27;11;q;1;0.772324513993226;001;14113971;2019_Jun_25_1528;iat_vr;59.92315455441795;
4;EINWANDFREI;positiv;p;1;8;28;6;p;1;0.6539086110133212;001;14113971;2019_Jun_25_1528;iat_vr;59.92315455441795;
4;SCHÄDLICH;negativ;q;1;9;29;3;q;1;1.7718408810032997;001;14113971;2019_Jun_25_1528;iat_vr;59.92315455441795;
4;GUT;positiv;p;1;10;30;9;p;1;0.6897088070109021;001;14113971;2019_Jun_25_1528;iat_vr;59.92315455441795;
4;SCHLIMM;negativ;q;1;11;31;0;q;1;0.6555384639941622;001;14113971;2019_Jun_25_1528;iat_vr;59.92315455441795;
4;POSITIV;positiv;p;1;12;32;8;p;1;0.7222181559773162;001;14113971;2019_Jun_25_1528;iat_vr;59.92315455441795;
4;KLEIDER;Gemacht;p;1;13;33;17;p;1;0.8554958440072369;001;14113971;2019_Jun_25_1528;iat_vr;59.92315455441795;
4;SCHWACH;negativ;q;1;14;34;4;q;1;1.3891212810121942;001;14113971;2019_Jun_25_1528;iat_vr;59.92315455441795;
4;COMPUTER;Gemacht;p;1;15;35;18;p;1;0.7724072890123352;001;14113971;2019_Jun_25_1528;iat_vr;59.92315455441795;
4;HERVORRAGEND;positiv;p;1;16;36;7;p;1;0.754193436994683;001;14113971;2019_Jun_25_1528;iat_vr;59.92315455441795;
4;BLUME;Natur;q;1;17;37;12;q;1;2.005883856996661;001;14113971;2019_Jun_25_1528;iat_vr;59.92315455441795;
4;NEGATIV;negativ;q;1;18;38;2;q;1;1.6395518429926597;001;14113971;2019_Jun_25_1528;iat_vr;59.92315455441795;
4;TIER;Natur;q;1;19;39;13;q;1;1.9043281220074277;001;14113971;2019_Jun_25_1528;iat_vr;59.92315455441795;
;;;;;;;;;;;001;14113971;2019_Jun_25_1528;iat_vr;59.92315455441795;
5;GEBÄUDE;Gemacht;q;0;0;0;5;q;1;1.138362772995606;001;14113971;2019_Jun_25_1528;iat_vr;59.92315455441795;
5;COMPUTER;Gemacht;q;0;1;1;8;q;1;10.422313581017079;001;14113971;2019_Jun_25_1528;iat_vr;59.92315455441795;
5;BAUM;Natur;p;0;2;2;0;p;1;3.0564675300265662;001;14113971;2019_Jun_25_1528;iat_vr;59.92315455441795;
5;STEIN;Natur;p;0;3;3;4;p;1;0.9394319690181874;001;14113971;2019_Jun_25_1528;iat_vr;59.92315455441795;
5;TIER;Natur;p;0;4;4;3;p;1;1.1379727619932964;001;14113971;2019_Jun_25_1528;iat_vr;59.92315455441795;
5;BLUME;Natur;p;0;5;5;2;p;1;1.42149344299105;001;14113971;2019_Jun_25_1528;iat_vr;59.92315455441795;
5;STADT;Gemacht;q;0;6;6;6;q;1;0.9048645820003003;001;14113971;2019_Jun_25_1528;iat_vr;59.92315455441795;
5;LAMPE;Gemacht;q;0;7;7;9;q;1;0.655589221016271;001;14113971;2019_Jun_25_1528;iat_vr;59.92315455441795;
5;KLEIDER;Gemacht;q;0;8;8;7;q;1;1.672926864004694;001;14113971;2019_Jun_25_1528;iat_vr;59.92315455441795;
5;WASSER;Natur;p;0;9;9;1;p;1;1.789264492021175;001;14113971;2019_Jun_25_1528;iat_vr;59.92315455441795;
5;GEBÄUDE;Gemacht;q;1;0;10;5;q;1;0.6888490569835994;001;14113971;2019_Jun_25_1528;iat_vr;59.92315455441795;
5;BAUM;Natur;p;1;1;11;0;p;1;0.8065531739848666;001;14113971;2019_Jun_25_1528;iat_vr;59.92315455441795;
5;WASSER;Natur;p;1;2;12;1;p;1;1.2391327359946445;001;14113971;2019_Jun_25_1528;iat_vr;59.92315455441795;
5;STADT;Gemacht;q;1;3;13;6;q;1;0.7061920539999846;001;14113971;2019_Jun_25_1528;iat_vr;59.92315455441795;
5;LAMPE;Gemacht;q;1;4;14;9;q;1;0.7692587579949759;001;14113971;2019_Jun_25_1528;iat_vr;59.92315455441795;
5;BLUME;Natur;p;1;5;15;2;p;1;1.1061691049835645;001;14113971;2019_Jun_25_1528;iat_vr;59.92315455441795;
5;COMPUTER;Gemacht;q;1;6;16;8;q;1;0.8551532159908675;001;14113971;2019_Jun_25_1528;iat_vr;59.92315455441795;
5;KLEIDER;Gemacht;q;1;7;17;7;q;1;0.7890630140027497;001;14113971;2019_Jun_25_1528;iat_vr;59.92315455441795;
5;TIER;Natur;p;1;8;18;3;p;1;1.0565035929903388;001;14113971;2019_Jun_25_1528;iat_vr;59.92315455441795;
5;STEIN;Natur;p;1;9;19;4;p;1;0.6716436620044988;001;14113971;2019_Jun_25_1528;iat_vr;59.92315455441795;
;;;;;;;;;;;001;14113971;2019_Jun_25_1528;iat_vr;59.92315455441795;
6;GUT;positiv;p;0;0;0;19;p;1;1.154244347999338;001;14113971;2019_Jun_25_1528;iat_vr;59.92315455441795;
6;POSITIV;positiv;p;0;1;1;18;p;1;0.7394388410029933;001;14113971;2019_Jun_25_1528;iat_vr;59.92315455441795;
6;SCHÄDLICH;negativ;q;0;2;2;13;q;1;1.9390043190214783;001;14113971;2019_Jun_25_1528;iat_vr;59.92315455441795;
6;SCHLIMM;negativ;q;0;3;3;10;q;1;0.8217003830068279;001;14113971;2019_Jun_25_1528;iat_vr;59.92315455441795;
6;EINWANDFREI;positiv;p;0;4;4;16;p;1;1.0033601110044401;001;14113971;2019_Jun_25_1528;iat_vr;59.92315455441795;
6;BAUM;Natur;p;0;5;5;0;p;1;2.289569204003783;001;14113971;2019_Jun_25_1528;iat_vr;59.92315455441795;
6;SCHLECHT;negativ;q;0;6;6;11;q;1;1.1554027060046792;001;14113971;2019_Jun_25_1528;iat_vr;59.92315455441795;
6;AUSGEZEICHNET;positiv;p;0;7;7;15;p;1;0.9710531200107653;001;14113971;2019_Jun_25_1528;iat_vr;59.92315455441795;
6;KLEIDER;Gemacht;q;0;8;8;7;q;1;1.1557914689765312;001;14113971;2019_Jun_25_1528;iat_vr;59.92315455441795;
6;TIER;Natur;p;0;9;9;3;p;1;1.6398945660039317;001;14113971;2019_Jun_25_1528;iat_vr;59.92315455441795;
6;STADT;Gemacht;q;0;10;10;6;q;1;0.9396193720167503;001;14113971;2019_Jun_25_1528;iat_vr;59.92315455441795;
6;NEGATIV;negativ;q;0;11;11;12;q;1;1.7560719730099663;001;14113971;2019_Jun_25_1528;iat_vr;59.92315455441795;
6;STEIN;Natur;p;0;12;12;4;p;1;0.7726667700044345;001;14113971;2019_Jun_25_1528;iat_vr;59.92315455441795;
6;HERVORRAGEND;positiv;p;0;13;13;17;p;1;1.0879618790058885;001;14113971;2019_Jun_25_1528;iat_vr;59.92315455441795;
6;BLUME;Natur;p;0;14;14;2;p;1;1.006213268992724;001;14113971;2019_Jun_25_1528;iat_vr;59.92315455441795;
6;COMPUTER;Gemacht;q;0;15;15;8;q;1;0.8554644759860821;001;14113971;2019_Jun_25_1528;iat_vr;59.92315455441795;
6;SCHWACH;negativ;q;0;16;16;14;q;1;1.1556625850207638;001;14113971;2019_Jun_25_1528;iat_vr;59.92315455441795;
6;LAMPE;Gemacht;q;0;17;17;9;q;1;0.9897548280132469;001;14113971;2019_Jun_25_1528;iat_vr;59.92315455441795;
6;GEBÄUDE;Gemacht;q;0;18;18;5;q;1;1.3056822729995474;001;14113971;2019_Jun_25_1528;iat_vr;59.92315455441795;
6;WASSER;Natur;p;0;19;19;1;p;1;0.7052977929997724;001;14113971;2019_Jun_25_1528;iat_vr;59.92315455441795;
;;;;;;;;;;;001;14113971;2019_Jun_25_1528;iat_vr;59.92315455441795;
7;GUT;positiv;p;0;0;0;19;p;1;0.7545093900116626;001;14113971;2019_Jun_25_1528;iat_vr;59.92315455441795;
7;SCHWACH;negativ;q;0;1;1;14;q;1;0.8729035849974025;001;14113971;2019_Jun_25_1528;iat_vr;59.92315455441795;
7;WASSER;Natur;p;0;2;2;1;p;1;0.7557462059776299;001;14113971;2019_Jun_25_1528;iat_vr;59.92315455441795;
7;EINWANDFREI;positiv;p;0;3;3;16;p;1;0.604821897984948;001;14113971;2019_Jun_25_1528;iat_vr;59.92315455441795;
7;BLUME;Natur;p;0;4;4;2;p;1;0.7187923960154876;001;14113971;2019_Jun_25_1528;iat_vr;59.92315455441795;
7;LAMPE;Gemacht;q;0;5;5;9;q;1;0.7226649369986262;001;14113971;2019_Jun_25_1528;iat_vr;59.92315455441795;
7;COMPUTER;Gemacht;q;0;6;6;8;q;1;0.7888695469882805;001;14113971;2019_Jun_25_1528;iat_vr;59.92315455441795;
7;BAUM;Natur;p;0;7;7;0;p;1;0.7888525910093449;001;14113971;2019_Jun_25_1528;iat_vr;59.92315455441795;
7;AUSGEZEICHNET;positiv;p;0;8;8;15;p;1;0.6046756839787122;001;14113971;2019_Jun_25_1528;iat_vr;59.92315455441795;
7;HERVORRAGEND;positiv;p;0;9;9;17;p;1;0.6048338900145609;001;14113971;2019_Jun_25_1528;iat_vr;59.92315455441795;
7;GEBÄUDE;Gemacht;q;0;10;10;5;q;1;0.8058562139922287;001;14113971;2019_Jun_25_1528;iat_vr;59.92315455441795;
7;STEIN;Natur;p;0;11;11;4;p;1;0.5384650579944719;001;14113971;2019_Jun_25_1528;iat_vr;59.92315455441795;
7;STADT;Gemacht;q;0;12;12;6;q;1;0.8727317349985242;001;14113971;2019_Jun_25_1528;iat_vr;59.92315455441795;
7;KLEIDER;Gemacht;q;0;13;13;7;q;1;1.1056514859956224;001;14113971;2019_Jun_25_1528;iat_vr;59.92315455441795;
7;SCHLECHT;negativ;q;0;14;14;11;q;1;0.9685692730126902;001;14113971;2019_Jun_25_1528;iat_vr;59.92315455441795;
7;NEGATIV;negativ;q;0;15;15;12;q;1;0.7217100330162793;001;14113971;2019_Jun_25_1528;iat_vr;59.92315455441795;
7;SCHLIMM;negativ;q;0;16;16;10;q;1;0.6218044540146366;001;14113971;2019_Jun_25_1528;iat_vr;59.92315455441795;
7;SCHÄDLICH;negativ;q;0;17;17;13;q;1;0.6035362590046134;001;14113971;2019_Jun_25_1528;iat_vr;59.92315455441795;
7;TIER;Natur;p;0;18;18;3;p;1;0.6045047319785226;001;14113971;2019_Jun_25_1528;iat_vr;59.92315455441795;
7;POSITIV;positiv;p;0;19;19;18;p;1;0.6890459950082004;001;14113971;2019_Jun_25_1528;iat_vr;59.92315455441795;
7;SCHLECHT;negativ;q;1;0;20;11;q;1;0.7045917869836558;001;14113971;2019_Jun_25_1528;iat_vr;59.92315455441795;
7;SCHWACH;negativ;q;1;1;21;14;q;1;1.605871281994041;001;14113971;2019_Jun_25_1528;iat_vr;59.92315455441795;
7;EINWANDFREI;positiv;p;1;2;22;16;p;1;0.687993699015351;001;14113971;2019_Jun_25_1528;iat_vr;59.92315455441795;
7;KLEIDER;Gemacht;q;1;3;23;7;q;1;0.7354917000047863;001;14113971;2019_Jun_25_1528;iat_vr;59.92315455441795;
7;NEGATIV;negativ;q;1;4;24;12;q;1;0.6050716759928036;001;14113971;2019_Jun_25_1528;iat_vr;59.92315455441795;
7;SCHLIMM;negativ;q;1;5;25;10;q;1;1.0890331349801272;001;14113971;2019_Jun_25_1528;iat_vr;59.92315455441795;
7;GUT;positiv;p;1;6;26;19;p;1;0.5889229429885745;001;14113971;2019_Jun_25_1528;iat_vr;59.92315455441795;
7;WASSER;Natur;p;1;7;27;1;p;1;0.6060464390029665;001;14113971;2019_Jun_25_1528;iat_vr;59.92315455441795;
7;BAUM;Natur;p;1;8;28;0;p;1;1.4048758410208393;001;14113971;2019_Jun_25_1528;iat_vr;59.92315455441795;
7;LAMPE;Gemacht;q;1;9;29;9;q;1;0.9193534429941792;001;14113971;2019_Jun_25_1528;iat_vr;59.92315455441795;
7;POSITIV;positiv;p;1;10;30;18;p;1;0.5713450829789508;001;14113971;2019_Jun_25_1528;iat_vr;59.92315455441795;
7;GEBÄUDE;Gemacht;q;1;11;31;5;q;1;0.8719388860045001;001;14113971;2019_Jun_25_1528;iat_vr;59.92315455441795;
7;TIER;Natur;p;1;12;32;3;p;1;0.7064544830063824;001;14113971;2019_Jun_25_1528;iat_vr;59.92315455441795;
7;SCHÄDLICH;negativ;q;1;13;33;13;q;1;0.705550818995107;001;14113971;2019_Jun_25_1528;iat_vr;59.92315455441795;
7;BLUME;Natur;p;1;14;34;2;p;1;2.0064163010101765;001;14113971;2019_Jun_25_1528;iat_vr;59.92315455441795;
7;STEIN;Natur;p;1;15;35;4;p;1;0.5392402829893399;001;14113971;2019_Jun_25_1528;iat_vr;59.92315455441795;
7;STADT;Gemacht;q;1;16;36;6;q;1;0.7893791520036757;001;14113971;2019_Jun_25_1528;iat_vr;59.92315455441795;
7;HERVORRAGEND;positiv;p;1;17;37;17;p;1;0.7383484549936838;001;14113971;2019_Jun_25_1528;iat_vr;59.92315455441795;
7;AUSGEZEICHNET;positiv;p;1;18;38;15;p;1;1.120293006009888;001;14113971;2019_Jun_25_1528;iat_vr;59.92315455441795;
7;COMPUTER;Gemacht;q;1;19;39;8;q;1;0.6219759230152704;001;14113971;2019_Jun_25_1528;iat_vr;59.92315455441795;
;;;;;;;;;;;001;14113971;2019_Jun_25_1528;iat_vr;59.92315455441795;
