Block;Word;Category;CorrResp;trials.thisRepN;trials.thisTrialN;trials.thisN;trials.thisIndex;key_resp_2.keys;key_resp_2.corr;key_resp_2.rt;session;participant;date;expName;frameRate;
1;LAMPE;Gemacht;p;0;0;0;9;p;1;1.155342870973982;002;14250831;2019_Jul_19_1133;iat_vr;60.052385248045105;
1;TIER;Natur;q;0;1;1;3;q;1;0.587362274993211;002;14250831;2019_Jul_19_1133;iat_vr;60.052385248045105;
1;COMPUTER;Gemacht;p;0;2;2;8;p;1;0.9046427729772404;002;14250831;2019_Jul_19_1133;iat_vr;60.052385248045105;
1;GEBÄUDE;Gemacht;p;0;3;3;5;p;1;0.584204426035285;002;14250831;2019_Jul_19_1133;iat_vr;60.052385248045105;
1;BLUME;Natur;q;0;4;4;2;q;1;0.5562326880171895;002;14250831;2019_Jul_19_1133;iat_vr;60.052385248045105;
1;STEIN;Natur;q;0;5;5;4;q;1;0.5511875940137543;002;14250831;2019_Jul_19_1133;iat_vr;60.052385248045105;
1;WASSER;Natur;q;0;6;6;1;q;1;0.6040802989737131;002;14250831;2019_Jul_19_1133;iat_vr;60.052385248045105;
1;STADT;Gemacht;p;0;7;7;6;p;1;0.539156343031209;002;14250831;2019_Jul_19_1133;iat_vr;60.052385248045105;
1;BAUM;Natur;q;0;8;8;0;q;1;0.6550465089967474;002;14250831;2019_Jul_19_1133;iat_vr;60.052385248045105;
1;KLEIDER;Gemacht;p;0;9;9;7;p;1;0.8212734589469619;002;14250831;2019_Jul_19_1133;iat_vr;60.052385248045105;
1;BAUM;Natur;q;1;0;10;0;q;1;0.6177202600520104;002;14250831;2019_Jul_19_1133;iat_vr;60.052385248045105;
1;TIER;Natur;q;1;1;11;3;q;1;1.3013946340070106;002;14250831;2019_Jul_19_1133;iat_vr;60.052385248045105;
1;LAMPE;Gemacht;p;1;2;12;9;p;1;0.5192914679646492;002;14250831;2019_Jul_19_1133;iat_vr;60.052385248045105;
1;COMPUTER;Gemacht;p;1;3;13;8;p;1;0.5222374379518442;002;14250831;2019_Jul_19_1133;iat_vr;60.052385248045105;
1;BLUME;Natur;q;1;4;14;2;q;1;0.5392229210119694;002;14250831;2019_Jul_19_1133;iat_vr;60.052385248045105;
1;KLEIDER;Gemacht;p;1;5;15;7;p;1;0.5200518809724599;002;14250831;2019_Jul_19_1133;iat_vr;60.052385248045105;
1;STEIN;Natur;q;1;6;16;4;q;1;0.5370022850111127;002;14250831;2019_Jul_19_1133;iat_vr;60.052385248045105;
1;GEBÄUDE;Gemacht;p;1;7;17;5;p;1;0.5058241040096618;002;14250831;2019_Jul_19_1133;iat_vr;60.052385248045105;
1;WASSER;Natur;q;1;8;18;1;q;1;0.5523955950047821;002;14250831;2019_Jul_19_1133;iat_vr;60.052385248045105;
1;STADT;Gemacht;p;1;9;19;6;p;1;0.48904953501187265;002;14250831;2019_Jul_19_1133;iat_vr;60.052385248045105;
;;;;;;;;;;;002;14250831;2019_Jul_19_1133;iat_vr;60.052385248045105;
2;SCHLECHT;negativ;q;0;0;0;1;q;1;0.8376029019709677;002;14250831;2019_Jul_19_1133;iat_vr;60.052385248045105;
2;GUT;positiv;p;0;1;1;9;p;1;0.5223633749992587;002;14250831;2019_Jul_19_1133;iat_vr;60.052385248045105;
2;NEGATIV;negativ;q;0;2;2;2;q;1;0.5379129750072025;002;14250831;2019_Jul_19_1133;iat_vr;60.052385248045105;
2;HERVORRAGEND;positiv;p;0;3;3;7;p;1;0.6380260909791104;002;14250831;2019_Jul_19_1133;iat_vr;60.052385248045105;
2;EINWANDFREI;positiv;p;0;4;4;6;p;1;0.6177676690276712;002;14250831;2019_Jul_19_1133;iat_vr;60.052385248045105;
2;POSITIV;positiv;p;0;5;5;8;q;0;0.5217017579707317;002;14250831;2019_Jul_19_1133;iat_vr;60.052385248045105;
2;SCHWACH;negativ;q;0;6;6;4;q;1;0.9722697070101276;002;14250831;2019_Jul_19_1133;iat_vr;60.052385248045105;
2;AUSGEZEICHNET;positiv;p;0;7;7;5;p;1;0.5544367830152623;002;14250831;2019_Jul_19_1133;iat_vr;60.052385248045105;
2;SCHÄDLICH;negativ;q;0;8;8;3;q;1;0.7540602989611216;002;14250831;2019_Jul_19_1133;iat_vr;60.052385248045105;
2;SCHLIMM;negativ;q;0;9;9;0;q;1;0.6033582749660127;002;14250831;2019_Jul_19_1133;iat_vr;60.052385248045105;
2;NEGATIV;negativ;q;1;0;10;2;q;1;0.6057363160070963;002;14250831;2019_Jul_19_1133;iat_vr;60.052385248045105;
2;POSITIV;positiv;p;1;1;11;8;p;1;0.6216080510057509;002;14250831;2019_Jul_19_1133;iat_vr;60.052385248045105;
2;SCHWACH;negativ;q;1;2;12;4;q;1;0.6554118949570693;002;14250831;2019_Jul_19_1133;iat_vr;60.052385248045105;
2;SCHLECHT;negativ;q;1;3;13;1;q;1;0.5887962559936568;002;14250831;2019_Jul_19_1133;iat_vr;60.052385248045105;
2;HERVORRAGEND;positiv;p;1;4;14;7;p;1;0.5545915309921838;002;14250831;2019_Jul_19_1133;iat_vr;60.052385248045105;
2;GUT;positiv;p;1;5;15;9;p;1;0.5877367529901676;002;14250831;2019_Jul_19_1133;iat_vr;60.052385248045105;
2;SCHÄDLICH;negativ;q;1;6;16;3;q;1;0.6546269760001451;002;14250831;2019_Jul_19_1133;iat_vr;60.052385248045105;
2;EINWANDFREI;positiv;p;1;7;17;6;q;0;0.6221904489793815;002;14250831;2019_Jul_19_1133;iat_vr;60.052385248045105;
2;AUSGEZEICHNET;positiv;p;1;8;18;5;p;1;0.817488847009372;002;14250831;2019_Jul_19_1133;iat_vr;60.052385248045105;
2;SCHLIMM;negativ;q;1;9;19;0;q;1;0.6052190800546668;002;14250831;2019_Jul_19_1133;iat_vr;60.052385248045105;
;;;;;;;;;;;002;14250831;2019_Jul_19_1133;iat_vr;60.052385248045105;
3;WASSER;Natur;q;0;0;0;11;q;1;0.8379519560257904;002;14250831;2019_Jul_19_1133;iat_vr;60.052385248045105;
3;STADT;Gemacht;p;0;1;1;16;p;1;1.0223341190139763;002;14250831;2019_Jul_19_1133;iat_vr;60.052385248045105;
3;SCHÄDLICH;negativ;q;0;2;2;3;q;1;0.7540799190173857;002;14250831;2019_Jul_19_1133;iat_vr;60.052385248045105;
3;GUT;positiv;p;0;3;3;9;p;1;0.7701761809876189;002;14250831;2019_Jul_19_1133;iat_vr;60.052385248045105;
3;SCHLECHT;negativ;q;0;4;4;1;q;1;0.5543028670363128;002;14250831;2019_Jul_19_1133;iat_vr;60.052385248045105;
3;SCHWACH;negativ;q;0;5;5;4;q;1;0.7223073170171119;002;14250831;2019_Jul_19_1133;iat_vr;60.052385248045105;
3;STEIN;Natur;q;0;6;6;14;q;1;0.8890134720131755;002;14250831;2019_Jul_19_1133;iat_vr;60.052385248045105;
3;KLEIDER;Gemacht;p;0;7;7;17;p;1;0.9019596590078436;002;14250831;2019_Jul_19_1133;iat_vr;60.052385248045105;
3;COMPUTER;Gemacht;p;0;8;8;18;p;1;0.5704127610079013;002;14250831;2019_Jul_19_1133;iat_vr;60.052385248045105;
3;AUSGEZEICHNET;positiv;p;0;9;9;5;p;1;0.9718103180057369;002;14250831;2019_Jul_19_1133;iat_vr;60.052385248045105;
3;GEBÄUDE;Gemacht;p;0;10;10;15;q;0;0.8544510650099255;002;14250831;2019_Jul_19_1133;iat_vr;60.052385248045105;
3;SCHLIMM;negativ;q;0;11;11;0;q;1;1.203901487053372;002;14250831;2019_Jul_19_1133;iat_vr;60.052385248045105;
3;BAUM;Natur;q;0;12;12;10;q;1;0.6393478799727745;002;14250831;2019_Jul_19_1133;iat_vr;60.052385248045105;
3;HERVORRAGEND;positiv;p;0;13;13;7;p;1;0.6009235830279067;002;14250831;2019_Jul_19_1133;iat_vr;60.052385248045105;
3;LAMPE;Gemacht;p;0;14;14;19;p;1;0.7730361300054938;002;14250831;2019_Jul_19_1133;iat_vr;60.052385248045105;
3;TIER;Natur;q;0;15;15;13;q;1;0.588686659000814;002;14250831;2019_Jul_19_1133;iat_vr;60.052385248045105;
3;BLUME;Natur;q;0;16;16;12;q;1;0.5392067700158805;002;14250831;2019_Jul_19_1133;iat_vr;60.052385248045105;
3;EINWANDFREI;positiv;p;0;17;17;6;p;1;1.2882701210328378;002;14250831;2019_Jul_19_1133;iat_vr;60.052385248045105;
3;POSITIV;positiv;p;0;18;18;8;p;1;0.6556421870482154;002;14250831;2019_Jul_19_1133;iat_vr;60.052385248045105;
3;NEGATIV;negativ;q;0;19;19;2;q;1;0.6725653949542902;002;14250831;2019_Jul_19_1133;iat_vr;60.052385248045105;
;;;;;;;;;;;002;14250831;2019_Jul_19_1133;iat_vr;60.052385248045105;
4;COMPUTER;Gemacht;p;0;0;0;18;p;1;1.0214592299889773;002;14250831;2019_Jul_19_1133;iat_vr;60.052385248045105;
4;LAMPE;Gemacht;p;0;1;1;19;p;1;0.5894792610197328;002;14250831;2019_Jul_19_1133;iat_vr;60.052385248045105;
4;SCHLECHT;negativ;q;0;2;2;1;q;1;0.6551450599799864;002;14250831;2019_Jul_19_1133;iat_vr;60.052385248045105;
4;SCHÄDLICH;negativ;q;0;3;3;3;q;1;0.6052010739804246;002;14250831;2019_Jul_19_1133;iat_vr;60.052385248045105;
4;GEBÄUDE;Gemacht;p;0;4;4;15;p;1;0.7708156980224885;002;14250831;2019_Jul_19_1133;iat_vr;60.052385248045105;
4;EINWANDFREI;positiv;p;0;5;5;6;p;1;0.73782315896824;002;14250831;2019_Jul_19_1133;iat_vr;60.052385248045105;
4;BLUME;Natur;q;0;6;6;12;q;1;0.6558305720100179;002;14250831;2019_Jul_19_1133;iat_vr;60.052385248045105;
4;STADT;Gemacht;p;0;7;7;16;p;1;0.8357705799862742;002;14250831;2019_Jul_19_1133;iat_vr;60.052385248045105;
4;NEGATIV;negativ;q;0;8;8;2;q;1;0.8722190750413574;002;14250831;2019_Jul_19_1133;iat_vr;60.052385248045105;
4;POSITIV;positiv;p;0;9;9;8;p;1;0.8047062190016732;002;14250831;2019_Jul_19_1133;iat_vr;60.052385248045105;
4;GUT;positiv;p;0;10;10;9;p;1;0.6693518950487487;002;14250831;2019_Jul_19_1133;iat_vr;60.052385248045105;
4;KLEIDER;Gemacht;p;0;11;11;17;p;1;0.6883710349793546;002;14250831;2019_Jul_19_1133;iat_vr;60.052385248045105;
4;TIER;Natur;q;0;12;12;13;q;1;0.7227542310138233;002;14250831;2019_Jul_19_1133;iat_vr;60.052385248045105;
4;AUSGEZEICHNET;positiv;p;0;13;13;5;p;1;0.687652787019033;002;14250831;2019_Jul_19_1133;iat_vr;60.052385248045105;
4;BAUM;Natur;q;0;14;14;10;q;1;0.7564999900059775;002;14250831;2019_Jul_19_1133;iat_vr;60.052385248045105;
4;WASSER;Natur;q;0;15;15;11;q;1;0.672384132980369;002;14250831;2019_Jul_19_1133;iat_vr;60.052385248045105;
4;STEIN;Natur;q;0;16;16;14;q;1;0.6559764349949546;002;14250831;2019_Jul_19_1133;iat_vr;60.052385248045105;
4;SCHWACH;negativ;q;0;17;17;4;p;0;0.9548351159901358;002;14250831;2019_Jul_19_1133;iat_vr;60.052385248045105;
4;HERVORRAGEND;positiv;p;0;18;18;7;p;1;1.4879703609622084;002;14250831;2019_Jul_19_1133;iat_vr;60.052385248045105;
4;SCHLIMM;negativ;q;0;19;19;0;q;1;1.2883012800011784;002;14250831;2019_Jul_19_1133;iat_vr;60.052385248045105;
4;COMPUTER;Gemacht;p;1;0;20;18;p;1;0.9215566060156561;002;14250831;2019_Jul_19_1133;iat_vr;60.052385248045105;
4;GEBÄUDE;Gemacht;p;1;1;21;15;p;1;0.5218371050432324;002;14250831;2019_Jul_19_1133;iat_vr;60.052385248045105;
4;STEIN;Natur;q;1;2;22;14;q;1;0.6221509780152701;002;14250831;2019_Jul_19_1133;iat_vr;60.052385248045105;
4;AUSGEZEICHNET;positiv;p;1;3;23;5;p;1;0.63649585301755;002;14250831;2019_Jul_19_1133;iat_vr;60.052385248045105;
4;SCHWACH;negativ;q;1;4;24;4;q;1;1.2059059890452772;002;14250831;2019_Jul_19_1133;iat_vr;60.052385248045105;
4;STADT;Gemacht;p;1;5;25;16;p;1;0.9863978669745848;002;14250831;2019_Jul_19_1133;iat_vr;60.052385248045105;
4;WASSER;Natur;q;1;6;26;11;q;1;0.5867842370062135;002;14250831;2019_Jul_19_1133;iat_vr;60.052385248045105;
4;BLUME;Natur;q;1;7;27;12;q;1;0.637741343001835;002;14250831;2019_Jul_19_1133;iat_vr;60.052385248045105;
4;SCHÄDLICH;negativ;q;1;8;28;3;q;1;1.3214558980544098;002;14250831;2019_Jul_19_1133;iat_vr;60.052385248045105;
4;LAMPE;Gemacht;p;1;9;29;19;p;1;0.6214400029857643;002;14250831;2019_Jul_19_1133;iat_vr;60.052385248045105;
4;NEGATIV;negativ;q;1;10;30;2;q;1;0.839477140980307;002;14250831;2019_Jul_19_1133;iat_vr;60.052385248045105;
4;KLEIDER;Gemacht;p;1;11;31;17;p;1;0.8183885460020974;002;14250831;2019_Jul_19_1133;iat_vr;60.052385248045105;
4;HERVORRAGEND;positiv;p;1;12;32;7;p;1;1.2882435849751346;002;14250831;2019_Jul_19_1133;iat_vr;60.052385248045105;
4;BAUM;Natur;q;1;13;33;10;q;1;0.7058561770245433;002;14250831;2019_Jul_19_1133;iat_vr;60.052385248045105;
4;POSITIV;positiv;p;1;14;34;8;p;1;0.7552122930064797;002;14250831;2019_Jul_19_1133;iat_vr;60.052385248045105;
4;EINWANDFREI;positiv;p;1;15;35;6;p;1;1.0181271570036188;002;14250831;2019_Jul_19_1133;iat_vr;60.052385248045105;
4;SCHLIMM;negativ;q;1;16;36;0;q;1;0.6549303670180961;002;14250831;2019_Jul_19_1133;iat_vr;60.052385248045105;
4;TIER;Natur;q;1;17;37;13;q;1;0.8230161140090786;002;14250831;2019_Jul_19_1133;iat_vr;60.052385248045105;
4;SCHLECHT;negativ;q;1;18;38;1;q;1;0.721895576978568;002;14250831;2019_Jul_19_1133;iat_vr;60.052385248045105;
4;GUT;positiv;p;1;19;39;9;p;1;0.787508167035412;002;14250831;2019_Jul_19_1133;iat_vr;60.052385248045105;
;;;;;;;;;;;002;14250831;2019_Jul_19_1133;iat_vr;60.052385248045105;
5;GEBÄUDE;Gemacht;q;0;0;0;5;q;1;0.8712394750327803;002;14250831;2019_Jul_19_1133;iat_vr;60.052385248045105;
5;TIER;Natur;p;0;1;1;3;p;1;0.671845821023453;002;14250831;2019_Jul_19_1133;iat_vr;60.052385248045105;
5;COMPUTER;Gemacht;q;0;2;2;8;q;1;0.6381359179504216;002;14250831;2019_Jul_19_1133;iat_vr;60.052385248045105;
5;BAUM;Natur;p;0;3;3;0;p;1;1.0215050309780054;002;14250831;2019_Jul_19_1133;iat_vr;60.052385248045105;
5;STADT;Gemacht;q;0;4;4;6;q;1;0.7393885370111093;002;14250831;2019_Jul_19_1133;iat_vr;60.052385248045105;
5;KLEIDER;Gemacht;q;0;5;5;7;q;1;0.5555710020125844;002;14250831;2019_Jul_19_1133;iat_vr;60.052385248045105;
5;WASSER;Natur;p;0;6;6;1;p;1;0.5713921450078487;002;14250831;2019_Jul_19_1133;iat_vr;60.052385248045105;
5;STEIN;Natur;p;0;7;7;4;p;1;0.4891800759942271;002;14250831;2019_Jul_19_1133;iat_vr;60.052385248045105;
5;BLUME;Natur;p;0;8;8;2;p;1;0.484574812988285;002;14250831;2019_Jul_19_1133;iat_vr;60.052385248045105;
5;LAMPE;Gemacht;q;0;9;9;9;q;1;0.6394187269615941;002;14250831;2019_Jul_19_1133;iat_vr;60.052385248045105;
5;BLUME;Natur;p;1;0;10;2;p;1;0.7877470090170391;002;14250831;2019_Jul_19_1133;iat_vr;60.052385248045105;
5;LAMPE;Gemacht;q;1;1;11;9;q;1;0.7724223569966853;002;14250831;2019_Jul_19_1133;iat_vr;60.052385248045105;
5;KLEIDER;Gemacht;q;1;2;12;7;q;1;0.6057747430168092;002;14250831;2019_Jul_19_1133;iat_vr;60.052385248045105;
5;STADT;Gemacht;q;1;3;13;6;q;1;0.4549482380389236;002;14250831;2019_Jul_19_1133;iat_vr;60.052385248045105;
5;COMPUTER;Gemacht;q;1;4;14;8;q;1;0.4886951150256209;002;14250831;2019_Jul_19_1133;iat_vr;60.052385248045105;
5;STEIN;Natur;p;1;5;15;4;p;1;0.48938251700019464;002;14250831;2019_Jul_19_1133;iat_vr;60.052385248045105;
5;WASSER;Natur;p;1;6;16;1;p;1;0.5388720839982852;002;14250831;2019_Jul_19_1133;iat_vr;60.052385248045105;
5;BAUM;Natur;p;1;7;17;0;p;1;0.6063460650038905;002;14250831;2019_Jul_19_1133;iat_vr;60.052385248045105;
5;GEBÄUDE;Gemacht;q;1;8;18;5;q;1;0.6056655459688045;002;14250831;2019_Jul_19_1133;iat_vr;60.052385248045105;
5;TIER;Natur;p;1;9;19;3;p;1;0.5392167470417917;002;14250831;2019_Jul_19_1133;iat_vr;60.052385248045105;
;;;;;;;;;;;002;14250831;2019_Jul_19_1133;iat_vr;60.052385248045105;
6;HERVORRAGEND;positiv;p;0;0;0;17;p;1;1.022925142024178;002;14250831;2019_Jul_19_1133;iat_vr;60.052385248045105;
6;KLEIDER;Gemacht;q;0;1;1;7;q;1;0.5534181740367785;002;14250831;2019_Jul_19_1133;iat_vr;60.052385248045105;
6;SCHÄDLICH;negativ;q;0;2;2;13;q;1;0.5219045149860904;002;14250831;2019_Jul_19_1133;iat_vr;60.052385248045105;
6;GEBÄUDE;Gemacht;q;0;3;3;5;q;1;0.4709649430005811;002;14250831;2019_Jul_19_1133;iat_vr;60.052385248045105;
6;POSITIV;positiv;p;0;4;4;18;p;1;0.6205431940034032;002;14250831;2019_Jul_19_1133;iat_vr;60.052385248045105;
6;BAUM;Natur;p;0;5;5;0;p;1;0.756267826014664;002;14250831;2019_Jul_19_1133;iat_vr;60.052385248045105;
6;SCHWACH;negativ;q;0;6;6;14;q;1;0.5886842220206745;002;14250831;2019_Jul_19_1133;iat_vr;60.052385248045105;
6;STEIN;Natur;p;0;7;7;4;p;1;1.0024979069712572;002;14250831;2019_Jul_19_1133;iat_vr;60.052385248045105;
6;SCHLECHT;negativ;q;0;8;8;11;q;1;0.6043927820282988;002;14250831;2019_Jul_19_1133;iat_vr;60.052385248045105;
6;EINWANDFREI;positiv;p;0;9;9;16;p;1;0.7884058469790034;002;14250831;2019_Jul_19_1133;iat_vr;60.052385248045105;
6;STADT;Gemacht;q;0;10;10;6;q;1;0.5725058179814368;002;14250831;2019_Jul_19_1133;iat_vr;60.052385248045105;
6;AUSGEZEICHNET;positiv;p;0;11;11;15;p;1;0.7706664520082995;002;14250831;2019_Jul_19_1133;iat_vr;60.052385248045105;
6;GUT;positiv;p;0;12;12;19;p;1;0.47241156396921724;002;14250831;2019_Jul_19_1133;iat_vr;60.052385248045105;
6;WASSER;Natur;p;0;13;13;1;p;1;0.5520762219675817;002;14250831;2019_Jul_19_1133;iat_vr;60.052385248045105;
6;SCHLIMM;negativ;q;0;14;14;10;q;1;0.5699403610196896;002;14250831;2019_Jul_19_1133;iat_vr;60.052385248045105;
6;LAMPE;Gemacht;q;0;15;15;9;q;1;0.6394369719782844;002;14250831;2019_Jul_19_1133;iat_vr;60.052385248045105;
6;BLUME;Natur;p;0;16;16;2;p;1;1.1066866720211692;002;14250831;2019_Jul_19_1133;iat_vr;60.052385248045105;
6;NEGATIV;negativ;q;0;17;17;12;q;1;0.5704773429897614;002;14250831;2019_Jul_19_1133;iat_vr;60.052385248045105;
6;TIER;Natur;p;0;18;18;3;p;1;0.6059066879679449;002;14250831;2019_Jul_19_1133;iat_vr;60.052385248045105;
6;COMPUTER;Gemacht;q;0;19;19;8;q;1;0.5044625650043599;002;14250831;2019_Jul_19_1133;iat_vr;60.052385248045105;
;;;;;;;;;;;002;14250831;2019_Jul_19_1133;iat_vr;60.052385248045105;
7;POSITIV;positiv;p;0;0;0;18;p;1;0.534425733028911;002;14250831;2019_Jul_19_1133;iat_vr;60.052385248045105;
7;TIER;Natur;p;0;1;1;3;p;1;0.6056253699935041;002;14250831;2019_Jul_19_1133;iat_vr;60.052385248045105;
7;LAMPE;Gemacht;q;0;2;2;9;q;1;0.533769161964301;002;14250831;2019_Jul_19_1133;iat_vr;60.052385248045105;
7;SCHÄDLICH;negativ;q;0;3;3;13;q;1;0.4883478370029479;002;14250831;2019_Jul_19_1133;iat_vr;60.052385248045105;
7;BLUME;Natur;p;0;4;4;2;p;1;0.538002791989129;002;14250831;2019_Jul_19_1133;iat_vr;60.052385248045105;
7;AUSGEZEICHNET;positiv;p;0;5;5;15;p;1;0.6712858069804497;002;14250831;2019_Jul_19_1133;iat_vr;60.052385248045105;
7;HERVORRAGEND;positiv;p;0;6;6;17;p;1;0.5879200380295515;002;14250831;2019_Jul_19_1133;iat_vr;60.052385248045105;
7;SCHWACH;negativ;q;0;7;7;14;q;1;0.4883785239653662;002;14250831;2019_Jul_19_1133;iat_vr;60.052385248045105;
7;WASSER;Natur;p;0;8;8;1;p;1;0.5716310370480642;002;14250831;2019_Jul_19_1133;iat_vr;60.052385248045105;
7;NEGATIV;negativ;q;0;9;9;12;q;1;0.5055174870067276;002;14250831;2019_Jul_19_1133;iat_vr;60.052385248045105;
7;GEBÄUDE;Gemacht;q;0;10;10;5;q;1;0.5714211000013165;002;14250831;2019_Jul_19_1133;iat_vr;60.052385248045105;
7;COMPUTER;Gemacht;q;0;11;11;8;q;1;0.4390964009799063;002;14250831;2019_Jul_19_1133;iat_vr;60.052385248045105;
7;SCHLECHT;negativ;q;0;12;12;11;q;1;0.5220610619871877;002;14250831;2019_Jul_19_1133;iat_vr;60.052385248045105;
7;SCHLIMM;negativ;q;0;13;13;10;q;1;0.47194580698851496;002;14250831;2019_Jul_19_1133;iat_vr;60.052385248045105;
7;EINWANDFREI;positiv;p;0;14;14;16;q;0;0.585059444012586;002;14250831;2019_Jul_19_1133;iat_vr;60.052385248045105;
7;STEIN;Natur;p;0;15;15;4;p;1;0.9893005930352956;002;14250831;2019_Jul_19_1133;iat_vr;60.052385248045105;
7;KLEIDER;Gemacht;q;0;16;16;7;q;1;0.539181100029964;002;14250831;2019_Jul_19_1133;iat_vr;60.052385248045105;
7;STADT;Gemacht;q;0;17;17;6;q;1;0.5221393000101671;002;14250831;2019_Jul_19_1133;iat_vr;60.052385248045105;
7;GUT;positiv;p;0;18;18;19;p;1;0.6712677049799822;002;14250831;2019_Jul_19_1133;iat_vr;60.052385248045105;
7;BAUM;Natur;p;0;19;19;0;p;1;0.47301913204137236;002;14250831;2019_Jul_19_1133;iat_vr;60.052385248045105;
7;GEBÄUDE;Gemacht;q;1;0;20;5;q;1;0.5880839630262926;002;14250831;2019_Jul_19_1133;iat_vr;60.052385248045105;
7;BLUME;Natur;p;1;1;21;2;p;1;0.5360349519760348;002;14250831;2019_Jul_19_1133;iat_vr;60.052385248045105;
7;SCHLIMM;negativ;q;1;2;22;10;q;1;0.6040299389860593;002;14250831;2019_Jul_19_1133;iat_vr;60.052385248045105;
7;NEGATIV;negativ;q;1;3;23;12;q;1;0.6855723619810306;002;14250831;2019_Jul_19_1133;iat_vr;60.052385248045105;
7;COMPUTER;Gemacht;q;1;4;24;8;q;1;0.7551320570055395;002;14250831;2019_Jul_19_1133;iat_vr;60.052385248045105;
7;BAUM;Natur;p;1;5;25;0;p;1;0.5361569109954871;002;14250831;2019_Jul_19_1133;iat_vr;60.052385248045105;
7;LAMPE;Gemacht;q;1;6;26;9;p;0;0.5529635439743288;002;14250831;2019_Jul_19_1133;iat_vr;60.052385248045105;
7;WASSER;Natur;p;1;7;27;1;p;1;0.5230410710209981;002;14250831;2019_Jul_19_1133;iat_vr;60.052385248045105;
7;EINWANDFREI;positiv;p;1;8;28;16;p;1;0.6195195350446738;002;14250831;2019_Jul_19_1133;iat_vr;60.052385248045105;
7;SCHWACH;negativ;q;1;9;29;14;q;1;0.5882202669745311;002;14250831;2019_Jul_19_1133;iat_vr;60.052385248045105;
7;GUT;positiv;p;1;10;30;19;p;1;0.7374807950109243;002;14250831;2019_Jul_19_1133;iat_vr;60.052385248045105;
7;SCHLECHT;negativ;q;1;11;31;11;q;1;0.5540139560471289;002;14250831;2019_Jul_19_1133;iat_vr;60.052385248045105;
7;SCHÄDLICH;negativ;q;1;12;32;13;q;1;0.6216052499949001;002;14250831;2019_Jul_19_1133;iat_vr;60.052385248045105;
7;POSITIV;positiv;p;1;13;33;18;p;1;0.5387156080105342;002;14250831;2019_Jul_19_1133;iat_vr;60.052385248045105;
7;STEIN;Natur;p;1;14;34;4;p;1;0.5339925300213508;002;14250831;2019_Jul_19_1133;iat_vr;60.052385248045105;
7;AUSGEZEICHNET;positiv;p;1;15;35;15;p;1;0.5540932560106739;002;14250831;2019_Jul_19_1133;iat_vr;60.052385248045105;
7;STADT;Gemacht;q;1;16;36;6;q;1;0.588706292968709;002;14250831;2019_Jul_19_1133;iat_vr;60.052385248045105;
7;KLEIDER;Gemacht;q;1;17;37;7;q;1;0.488099540991243;002;14250831;2019_Jul_19_1133;iat_vr;60.052385248045105;
7;TIER;Natur;p;1;18;38;3;p;1;0.6007946099853143;002;14250831;2019_Jul_19_1133;iat_vr;60.052385248045105;
7;HERVORRAGEND;positiv;p;1;19;39;17;p;1;0.53695574804442;002;14250831;2019_Jul_19_1133;iat_vr;60.052385248045105;
;;;;;;;;;;;002;14250831;2019_Jul_19_1133;iat_vr;60.052385248045105;
