Block;Word;Category;CorrResp;trials.thisRepN;trials.thisTrialN;trials.thisN;trials.thisIndex;key_resp_2.keys;key_resp_2.corr;key_resp_2.rt;session;participant;date;expName;frameRate;
1;COMPUTER;Gemacht;p;0;0;0;8;p;1;2.006789641999603;001;EftPx;2019_May_22_1524;iat_vr;59.753016046789334;
1;WASSER;Natur;q;0;1;1;1;q;1;0.8046702389992788;001;EftPx;2019_May_22_1524;iat_vr;59.753016046789334;
1;GEBÄUDE;Gemacht;p;0;2;2;5;p;1;0.6882859630004532;001;EftPx;2019_May_22_1524;iat_vr;59.753016046789334;
1;STEIN;Natur;q;0;3;3;4;q;1;0.9514019700000063;001;EftPx;2019_May_22_1524;iat_vr;59.753016046789334;
1;KLEIDER;Gemacht;p;0;4;4;7;p;1;1.1206792200000564;001;EftPx;2019_May_22_1524;iat_vr;59.753016046789334;
1;LAMPE;Gemacht;p;0;5;5;9;p;1;0.7548170720001508;001;EftPx;2019_May_22_1524;iat_vr;59.753016046789334;
1;STADT;Gemacht;p;0;6;6;6;p;1;0.6543582530002823;001;EftPx;2019_May_22_1524;iat_vr;59.753016046789334;
1;BAUM;Natur;q;0;7;7;0;p;0;0.7049179249997906;001;EftPx;2019_May_22_1524;iat_vr;59.753016046789334;
1;BLUME;Natur;q;0;8;8;2;q;1;1.1375924780004425;001;EftPx;2019_May_22_1524;iat_vr;59.753016046789334;
1;TIER;Natur;q;0;9;9;3;q;1;0.6376333669995802;001;EftPx;2019_May_22_1524;iat_vr;59.753016046789334;
1;KLEIDER;Gemacht;p;1;0;10;7;p;1;0.6705996010005038;001;EftPx;2019_May_22_1524;iat_vr;59.753016046789334;
1;LAMPE;Gemacht;p;1;1;11;9;p;1;0.8550852459993621;001;EftPx;2019_May_22_1524;iat_vr;59.753016046789334;
1;GEBÄUDE;Gemacht;p;1;2;12;5;p;1;0.8883599450000474;001;EftPx;2019_May_22_1524;iat_vr;59.753016046789334;
1;WASSER;Natur;q;1;3;13;1;q;1;0.6208394940003927;001;EftPx;2019_May_22_1524;iat_vr;59.753016046789334;
1;TIER;Natur;q;1;4;14;3;q;1;1.6885662980002962;001;EftPx;2019_May_22_1524;iat_vr;59.753016046789334;
1;STADT;Gemacht;p;1;5;15;6;p;1;0.6541361550007423;001;EftPx;2019_May_22_1524;iat_vr;59.753016046789334;
1;COMPUTER;Gemacht;p;1;6;16;8;p;1;0.7353063239997937;001;EftPx;2019_May_22_1524;iat_vr;59.753016046789334;
1;STEIN;Natur;q;1;7;17;4;q;1;0.6210262369995689;001;EftPx;2019_May_22_1524;iat_vr;59.753016046789334;
1;BAUM;Natur;q;1;8;18;0;p;0;0.7360540479994597;001;EftPx;2019_May_22_1524;iat_vr;59.753016046789334;
1;BLUME;Natur;q;1;9;19;2;q;1;0.8375887980000698;001;EftPx;2019_May_22_1524;iat_vr;59.753016046789334;
;;;;;;;;;;;001;EftPx;2019_May_22_1524;iat_vr;59.753016046789334;
2;POSITIV;positiv;p;0;0;0;8;p;1;1.338027458000397;001;EftPx;2019_May_22_1524;iat_vr;59.753016046789334;
2;HERVORRAGEND;positiv;p;0;1;1;7;p;1;1.0049925040002563;001;EftPx;2019_May_22_1524;iat_vr;59.753016046789334;
2;GUT;positiv;p;0;2;2;9;p;1;0.6726579430005586;001;EftPx;2019_May_22_1524;iat_vr;59.753016046789334;
2;SCHÄDLICH;negativ;q;0;3;3;3;q;1;0.6011930710001252;001;EftPx;2019_May_22_1524;iat_vr;59.753016046789334;
2;EINWANDFREI;positiv;p;0;4;4;6;p;1;0.8535524359995179;001;EftPx;2019_May_22_1524;iat_vr;59.753016046789334;
2;AUSGEZEICHNET;positiv;p;0;5;5;5;p;1;0.7207818300003055;001;EftPx;2019_May_22_1524;iat_vr;59.753016046789334;
2;SCHLECHT;negativ;q;0;6;6;1;q;1;0.6709134239999912;001;EftPx;2019_May_22_1524;iat_vr;59.753016046789334;
2;SCHLIMM;negativ;q;0;7;7;0;q;1;0.6182911340001738;001;EftPx;2019_May_22_1524;iat_vr;59.753016046789334;
2;NEGATIV;negativ;q;0;8;8;2;q;1;0.6709629629995106;001;EftPx;2019_May_22_1524;iat_vr;59.753016046789334;
2;SCHWACH;negativ;q;0;9;9;4;q;1;0.6380800649994853;001;EftPx;2019_May_22_1524;iat_vr;59.753016046789334;
2;HERVORRAGEND;positiv;p;1;0;10;7;p;1;0.7548143739995794;001;EftPx;2019_May_22_1524;iat_vr;59.753016046789334;
2;NEGATIV;negativ;q;1;1;11;2;q;1;0.5887050820001605;001;EftPx;2019_May_22_1524;iat_vr;59.753016046789334;
2;GUT;positiv;p;1;2;12;9;p;1;0.7229369850001603;001;EftPx;2019_May_22_1524;iat_vr;59.753016046789334;
2;SCHLIMM;negativ;q;1;3;13;0;q;1;0.5388163110001187;001;EftPx;2019_May_22_1524;iat_vr;59.753016046789334;
2;POSITIV;positiv;p;1;4;14;8;p;1;0.5877712920000704;001;EftPx;2019_May_22_1524;iat_vr;59.753016046789334;
2;SCHWACH;negativ;q;1;5;15;4;q;1;0.5554772269997557;001;EftPx;2019_May_22_1524;iat_vr;59.753016046789334;
2;SCHLECHT;negativ;q;1;6;16;1;q;1;0.7714152700000341;001;EftPx;2019_May_22_1524;iat_vr;59.753016046789334;
2;SCHÄDLICH;negativ;q;1;7;17;3;q;1;0.7378982780001024;001;EftPx;2019_May_22_1524;iat_vr;59.753016046789334;
2;EINWANDFREI;positiv;p;1;8;18;6;p;1;0.7207286000002568;001;EftPx;2019_May_22_1524;iat_vr;59.753016046789334;
2;AUSGEZEICHNET;positiv;p;1;9;19;5;p;1;0.6206909889997405;001;EftPx;2019_May_22_1524;iat_vr;59.753016046789334;
;;;;;;;;;;;001;EftPx;2019_May_22_1524;iat_vr;59.753016046789334;
3;HERVORRAGEND;positiv;p;0;0;0;7;p;1;1.5224404900000081;001;EftPx;2019_May_22_1524;iat_vr;59.753016046789334;
3;POSITIV;positiv;p;0;1;1;8;p;1;0.8722346280001148;001;EftPx;2019_May_22_1524;iat_vr;59.753016046789334;
3;SCHWACH;negativ;q;0;2;2;4;q;1;0.7683074870001292;001;EftPx;2019_May_22_1524;iat_vr;59.753016046789334;
3;GUT;positiv;p;0;3;3;9;p;1;0.6714005200001338;001;EftPx;2019_May_22_1524;iat_vr;59.753016046789334;
3;SCHLECHT;negativ;q;0;4;4;1;q;1;0.6881138919998193;001;EftPx;2019_May_22_1524;iat_vr;59.753016046789334;
3;AUSGEZEICHNET;positiv;p;0;5;5;5;p;1;0.7876107709998905;001;EftPx;2019_May_22_1524;iat_vr;59.753016046789334;
3;SCHLIMM;negativ;q;0;6;6;0;q;1;0.754392187999656;001;EftPx;2019_May_22_1524;iat_vr;59.753016046789334;
3;KLEIDER;Gemacht;p;0;7;7;17;p;1;1.3215336990006108;001;EftPx;2019_May_22_1524;iat_vr;59.753016046789334;
3;BAUM;Natur;q;0;8;8;10;q;1;0.7200363439997091;001;EftPx;2019_May_22_1524;iat_vr;59.753016046789334;
3;BLUME;Natur;q;0;9;9;12;q;1;0.7707227999999304;001;EftPx;2019_May_22_1524;iat_vr;59.753016046789334;
3;LAMPE;Gemacht;p;0;10;10;19;p;1;0.6218570000000909;001;EftPx;2019_May_22_1524;iat_vr;59.753016046789334;
3;EINWANDFREI;positiv;p;0;11;11;6;q;0;0.9876341650005998;001;EftPx;2019_May_22_1524;iat_vr;59.753016046789334;
3;SCHÄDLICH;negativ;q;0;12;12;3;q;1;0.7837506879995999;001;EftPx;2019_May_22_1524;iat_vr;59.753016046789334;
3;COMPUTER;Gemacht;p;0;13;13;18;p;1;0.7177756189994398;001;EftPx;2019_May_22_1524;iat_vr;59.753016046789334;
3;WASSER;Natur;q;0;14;14;11;q;1;0.639147462999972;001;EftPx;2019_May_22_1524;iat_vr;59.753016046789334;
3;STADT;Gemacht;p;0;15;15;16;p;1;0.6225712509994992;001;EftPx;2019_May_22_1524;iat_vr;59.753016046789334;
3;GEBÄUDE;Gemacht;p;0;16;16;15;p;1;0.7205197279999993;001;EftPx;2019_May_22_1524;iat_vr;59.753016046789334;
3;TIER;Natur;q;0;17;17;13;q;1;0.7714279170004374;001;EftPx;2019_May_22_1524;iat_vr;59.753016046789334;
3;STEIN;Natur;q;0;18;18;14;q;1;0.6015311020000809;001;EftPx;2019_May_22_1524;iat_vr;59.753016046789334;
3;NEGATIV;negativ;q;0;19;19;2;q;1;0.7561609550002686;001;EftPx;2019_May_22_1524;iat_vr;59.753016046789334;
;;;;;;;;;;;001;EftPx;2019_May_22_1524;iat_vr;59.753016046789334;
4;LAMPE;Gemacht;p;0;0;0;19;p;1;1.2048062280000522;001;EftPx;2019_May_22_1524;iat_vr;59.753016046789334;
4;GEBÄUDE;Gemacht;p;0;1;1;15;p;1;0.6548938839996481;001;EftPx;2019_May_22_1524;iat_vr;59.753016046789334;
4;EINWANDFREI;positiv;p;0;2;2;6;p;1;1.954648520999399;001;EftPx;2019_May_22_1524;iat_vr;59.753016046789334;
4;KLEIDER;Gemacht;p;0;3;3;17;p;1;0.7882778739995047;001;EftPx;2019_May_22_1524;iat_vr;59.753016046789334;
4;WASSER;Natur;q;0;4;4;11;q;1;0.6386237139995501;001;EftPx;2019_May_22_1524;iat_vr;59.753016046789334;
4;TIER;Natur;q;0;5;5;13;q;1;1.4031428509997568;001;EftPx;2019_May_22_1524;iat_vr;59.753016046789334;
4;SCHLECHT;negativ;q;0;6;6;1;q;1;0.7223254139998971;001;EftPx;2019_May_22_1524;iat_vr;59.753016046789334;
4;HERVORRAGEND;positiv;p;0;7;7;7;p;1;0.6213181240000267;001;EftPx;2019_May_22_1524;iat_vr;59.753016046789334;
4;SCHLIMM;negativ;q;0;8;8;0;q;1;0.6223795969999628;001;EftPx;2019_May_22_1524;iat_vr;59.753016046789334;
4;STADT;Gemacht;p;0;9;9;16;p;1;0.6370419699997001;001;EftPx;2019_May_22_1524;iat_vr;59.753016046789334;
4;COMPUTER;Gemacht;p;0;10;10;18;p;1;0.6048208610000074;001;EftPx;2019_May_22_1524;iat_vr;59.753016046789334;
4;BLUME;Natur;q;0;11;11;12;q;1;0.5553423480005222;001;EftPx;2019_May_22_1524;iat_vr;59.753016046789334;
4;GUT;positiv;p;0;12;12;9;p;1;1.3884957720001694;001;EftPx;2019_May_22_1524;iat_vr;59.753016046789334;
4;STEIN;Natur;q;0;13;13;14;q;1;0.5892722970002069;001;EftPx;2019_May_22_1524;iat_vr;59.753016046789334;
4;SCHÄDLICH;negativ;q;0;14;14;3;q;1;0.7547133809994193;001;EftPx;2019_May_22_1524;iat_vr;59.753016046789334;
4;NEGATIV;negativ;q;0;15;15;2;q;1;0.6541772250002396;001;EftPx;2019_May_22_1524;iat_vr;59.753016046789334;
4;BAUM;Natur;q;0;16;16;10;q;1;0.6385764520000521;001;EftPx;2019_May_22_1524;iat_vr;59.753016046789334;
4;POSITIV;positiv;p;0;17;17;8;p;1;0.60073938000005;001;EftPx;2019_May_22_1524;iat_vr;59.753016046789334;
4;SCHWACH;negativ;q;0;18;18;4;q;1;0.605061878000015;001;EftPx;2019_May_22_1524;iat_vr;59.753016046789334;
4;AUSGEZEICHNET;positiv;p;0;19;19;5;p;1;0.6376123910004026;001;EftPx;2019_May_22_1524;iat_vr;59.753016046789334;
4;COMPUTER;Gemacht;p;1;0;20;18;p;1;0.6702438550000807;001;EftPx;2019_May_22_1524;iat_vr;59.753016046789334;
4;WASSER;Natur;q;1;1;21;11;q;1;0.6052640200005044;001;EftPx;2019_May_22_1524;iat_vr;59.753016046789334;
4;AUSGEZEICHNET;positiv;p;1;2;22;5;p;1;0.8366696930006583;001;EftPx;2019_May_22_1524;iat_vr;59.753016046789334;
4;SCHLECHT;negativ;q;1;3;23;1;q;1;0.6214720859998124;001;EftPx;2019_May_22_1524;iat_vr;59.753016046789334;
4;TIER;Natur;q;1;4;24;13;q;1;1.105218469000647;001;EftPx;2019_May_22_1524;iat_vr;59.753016046789334;
4;STEIN;Natur;q;1;5;25;14;q;1;0.604229597000085;001;EftPx;2019_May_22_1524;iat_vr;59.753016046789334;
4;NEGATIV;negativ;q;1;6;26;2;q;1;0.6213485509997554;001;EftPx;2019_May_22_1524;iat_vr;59.753016046789334;
4;SCHÄDLICH;negativ;q;1;7;27;3;q;1;0.5872921800000768;001;EftPx;2019_May_22_1524;iat_vr;59.753016046789334;
4;LAMPE;Gemacht;p;1;8;28;19;p;1;0.5715943010000046;001;EftPx;2019_May_22_1524;iat_vr;59.753016046789334;
4;SCHWACH;negativ;q;1;9;29;4;q;1;1.0542183520001345;001;EftPx;2019_May_22_1524;iat_vr;59.753016046789334;
4;GUT;positiv;p;1;10;30;9;p;1;0.638537625999561;001;EftPx;2019_May_22_1524;iat_vr;59.753016046789334;
4;BLUME;Natur;q;1;11;31;12;q;1;0.638251131999823;001;EftPx;2019_May_22_1524;iat_vr;59.753016046789334;
4;BAUM;Natur;q;1;12;32;10;q;1;0.7396962900002109;001;EftPx;2019_May_22_1524;iat_vr;59.753016046789334;
4;EINWANDFREI;positiv;p;1;13;33;6;p;1;0.6548940949996904;001;EftPx;2019_May_22_1524;iat_vr;59.753016046789334;
4;KLEIDER;Gemacht;p;1;14;34;17;p;1;0.6540173920002417;001;EftPx;2019_May_22_1524;iat_vr;59.753016046789334;
4;POSITIV;positiv;p;1;15;35;8;q;0;0.7374685800004954;001;EftPx;2019_May_22_1524;iat_vr;59.753016046789334;
4;SCHLIMM;negativ;q;1;16;36;0;q;1;0.6894681820003825;001;EftPx;2019_May_22_1524;iat_vr;59.753016046789334;
4;HERVORRAGEND;positiv;p;1;17;37;7;p;1;0.6540291169994816;001;EftPx;2019_May_22_1524;iat_vr;59.753016046789334;
4;GEBÄUDE;Gemacht;p;1;18;38;15;p;1;0.604684277999695;001;EftPx;2019_May_22_1524;iat_vr;59.753016046789334;
4;STADT;Gemacht;p;1;19;39;16;p;1;0.5057371100001546;001;EftPx;2019_May_22_1524;iat_vr;59.753016046789334;
;;;;;;;;;;;001;EftPx;2019_May_22_1524;iat_vr;59.753016046789334;
5;STADT;Gemacht;q;0;0;0;6;q;1;0.9542862070002229;001;EftPx;2019_May_22_1524;iat_vr;59.753016046789334;
5;WASSER;Natur;p;0;1;1;1;p;1;0.7352765109999382;001;EftPx;2019_May_22_1524;iat_vr;59.753016046789334;
5;COMPUTER;Gemacht;q;0;2;2;8;q;1;0.9388683170000149;001;EftPx;2019_May_22_1524;iat_vr;59.753016046789334;
5;TIER;Natur;p;0;3;3;3;p;1;1.2568074760001764;001;EftPx;2019_May_22_1524;iat_vr;59.753016046789334;
5;LAMPE;Gemacht;q;0;4;4;9;q;1;0.6543314099999407;001;EftPx;2019_May_22_1524;iat_vr;59.753016046789334;
5;BAUM;Natur;p;0;5;5;0;p;1;0.8059395199998107;001;EftPx;2019_May_22_1524;iat_vr;59.753016046789334;
5;KLEIDER;Gemacht;q;0;6;6;7;q;1;0.8059040050002295;001;EftPx;2019_May_22_1524;iat_vr;59.753016046789334;
5;STEIN;Natur;p;0;7;7;4;p;1;0.9053585259998727;001;EftPx;2019_May_22_1524;iat_vr;59.753016046789334;
5;BLUME;Natur;p;0;8;8;2;p;1;0.8564986399996997;001;EftPx;2019_May_22_1524;iat_vr;59.753016046789334;
5;GEBÄUDE;Gemacht;q;0;9;9;5;q;1;0.805363075999594;001;EftPx;2019_May_22_1524;iat_vr;59.753016046789334;
5;WASSER;Natur;p;1;0;10;1;p;1;0.8373779829998966;001;EftPx;2019_May_22_1524;iat_vr;59.753016046789334;
5;BLUME;Natur;p;1;1;11;2;p;1;1.3717716179999115;001;EftPx;2019_May_22_1524;iat_vr;59.753016046789334;
5;BAUM;Natur;p;1;2;12;0;p;1;0.887305331000789;001;EftPx;2019_May_22_1524;iat_vr;59.753016046789334;
5;STEIN;Natur;p;1;3;13;4;p;1;0.718919060999724;001;EftPx;2019_May_22_1524;iat_vr;59.753016046789334;
5;COMPUTER;Gemacht;q;1;4;14;8;q;1;0.6042648060001738;001;EftPx;2019_May_22_1524;iat_vr;59.753016046789334;
5;TIER;Natur;p;1;5;15;3;p;1;0.7065149680001923;001;EftPx;2019_May_22_1524;iat_vr;59.753016046789334;
5;LAMPE;Gemacht;q;1;6;16;9;q;1;1.2541354240001965;001;EftPx;2019_May_22_1524;iat_vr;59.753016046789334;
5;GEBÄUDE;Gemacht;q;1;7;17;5;q;1;0.7210912600003212;001;EftPx;2019_May_22_1524;iat_vr;59.753016046789334;
5;STADT;Gemacht;q;1;8;18;6;q;1;0.6181255800001964;001;EftPx;2019_May_22_1524;iat_vr;59.753016046789334;
5;KLEIDER;Gemacht;q;1;9;19;7;p;0;0.7389959049996833;001;EftPx;2019_May_22_1524;iat_vr;59.753016046789334;
;;;;;;;;;;;001;EftPx;2019_May_22_1524;iat_vr;59.753016046789334;
6;STEIN;Natur;p;0;0;0;4;p;1;1.1375601110003117;001;EftPx;2019_May_22_1524;iat_vr;59.753016046789334;
6;WASSER;Natur;p;0;1;1;1;p;1;0.6557603559995187;001;EftPx;2019_May_22_1524;iat_vr;59.753016046789334;
6;KLEIDER;Gemacht;q;0;2;2;7;p;0;0.888352396999835;001;EftPx;2019_May_22_1524;iat_vr;59.753016046789334;
6;STADT;Gemacht;q;0;3;3;6;q;1;1.0723439639996286;001;EftPx;2019_May_22_1524;iat_vr;59.753016046789334;
6;SCHLECHT;negativ;q;0;4;4;11;q;1;1.004826704000152;001;EftPx;2019_May_22_1524;iat_vr;59.753016046789334;
6;SCHWACH;negativ;q;0;5;5;14;q;1;1.0893516600008297;001;EftPx;2019_May_22_1524;iat_vr;59.753016046789334;
6;BAUM;Natur;p;0;6;6;0;p;1;1.6063011310006914;001;EftPx;2019_May_22_1524;iat_vr;59.753016046789334;
6;HERVORRAGEND;positiv;p;0;7;7;17;q;0;0.888021533999563;001;EftPx;2019_May_22_1524;iat_vr;59.753016046789334;
6;COMPUTER;Gemacht;q;0;8;8;8;p;0;1.0883884960003343;001;EftPx;2019_May_22_1524;iat_vr;59.753016046789334;
6;AUSGEZEICHNET;positiv;p;0;9;9;15;q;0;1.3712389229995097;001;EftPx;2019_May_22_1524;iat_vr;59.753016046789334;
6;GUT;positiv;p;0;10;10;19;p;1;0.604983768999773;001;EftPx;2019_May_22_1524;iat_vr;59.753016046789334;
6;LAMPE;Gemacht;q;0;11;11;9;p;0;0.9902369139999792;001;EftPx;2019_May_22_1524;iat_vr;59.753016046789334;
6;NEGATIV;negativ;q;0;12;12;12;q;1;1.355394012999568;001;EftPx;2019_May_22_1524;iat_vr;59.753016046789334;
6;TIER;Natur;p;0;13;13;3;p;1;1.1725482310002917;001;EftPx;2019_May_22_1524;iat_vr;59.753016046789334;
6;EINWANDFREI;positiv;p;0;14;14;16;q;0;1.0368065540005773;001;EftPx;2019_May_22_1524;iat_vr;59.753016046789334;
6;BLUME;Natur;p;0;15;15;2;p;1;1.0382659779997994;001;EftPx;2019_May_22_1524;iat_vr;59.753016046789334;
6;GEBÄUDE;Gemacht;q;0;16;16;5;q;1;1.1047850840004685;001;EftPx;2019_May_22_1524;iat_vr;59.753016046789334;
6;SCHÄDLICH;negativ;q;0;17;17;13;p;0;0.9220837619996018;001;EftPx;2019_May_22_1524;iat_vr;59.753016046789334;
6;POSITIV;positiv;p;0;18;18;18;q;0;1.6227549470004305;001;EftPx;2019_May_22_1524;iat_vr;59.753016046789334;
6;SCHLIMM;negativ;q;0;19;19;10;p;0;2.6221010180006488;001;EftPx;2019_May_22_1524;iat_vr;59.753016046789334;
;;;;;;;;;;;001;EftPx;2019_May_22_1524;iat_vr;59.753016046789334;
7;SCHLECHT;negativ;q;0;0;0;11;q;1;3.32263197499924;001;EftPx;2019_May_22_1524;iat_vr;59.753016046789334;
7;WASSER;Natur;p;0;1;1;1;q;0;1.6399793240007057;001;EftPx;2019_May_22_1524;iat_vr;59.753016046789334;
7;BAUM;Natur;p;0;2;2;0;p;1;1.9889711710002302;001;EftPx;2019_May_22_1524;iat_vr;59.753016046789334;
7;TIER;Natur;p;0;3;3;3;p;1;1.220707522000339;001;EftPx;2019_May_22_1524;iat_vr;59.753016046789334;
7;SCHÄDLICH;negativ;q;0;4;4;13;q;1;1.5884810119996473;001;EftPx;2019_May_22_1524;iat_vr;59.753016046789334;
7;STEIN;Natur;p;0;5;5;4;p;1;0.91957074200036;001;EftPx;2019_May_22_1524;iat_vr;59.753016046789334;
7;SCHLIMM;negativ;q;0;6;6;10;q;1;0.9885535349994825;001;EftPx;2019_May_22_1524;iat_vr;59.753016046789334;
7;HERVORRAGEND;positiv;p;0;7;7;17;p;1;1.0551885089998905;001;EftPx;2019_May_22_1524;iat_vr;59.753016046789334;
7;GUT;positiv;p;0;8;8;19;p;1;0.8556864649999625;001;EftPx;2019_May_22_1524;iat_vr;59.753016046789334;
7;BLUME;Natur;p;0;9;9;2;q;0;1.1034604529995704;001;EftPx;2019_May_22_1524;iat_vr;59.753016046789334;
7;STADT;Gemacht;q;0;10;10;6;q;1;1.223055352999836;001;EftPx;2019_May_22_1524;iat_vr;59.753016046789334;
7;NEGATIV;negativ;q;0;11;11;12;p;0;1.072077349999745;001;EftPx;2019_May_22_1524;iat_vr;59.753016046789334;
7;KLEIDER;Gemacht;q;0;12;12;7;p;0;1.5053559490006592;001;EftPx;2019_May_22_1524;iat_vr;59.753016046789334;
7;POSITIV;positiv;p;0;13;13;18;q;0;0.47053111199966224;001;EftPx;2019_May_22_1524;iat_vr;59.753016046789334;
7;AUSGEZEICHNET;positiv;p;0;14;14;15;p;1;1.1714298919996509;001;EftPx;2019_May_22_1524;iat_vr;59.753016046789334;
7;EINWANDFREI;positiv;p;0;15;15;16;p;1;0.9547484630002145;001;EftPx;2019_May_22_1524;iat_vr;59.753016046789334;
7;GEBÄUDE;Gemacht;q;0;16;16;5;q;1;1.5218347540003379;001;EftPx;2019_May_22_1524;iat_vr;59.753016046789334;
7;SCHWACH;negativ;q;0;17;17;14;q;1;1.1384231739993993;001;EftPx;2019_May_22_1524;iat_vr;59.753016046789334;
7;LAMPE;Gemacht;q;0;18;18;9;q;1;0.8871786150002663;001;EftPx;2019_May_22_1524;iat_vr;59.753016046789334;
7;COMPUTER;Gemacht;q;0;19;19;8;q;1;0.7207739269997546;001;EftPx;2019_May_22_1524;iat_vr;59.753016046789334;
7;COMPUTER;Gemacht;q;1;0;20;8;q;1;0.7042841929996939;001;EftPx;2019_May_22_1524;iat_vr;59.753016046789334;
7;SCHLIMM;negativ;q;1;1;21;10;q;1;0.7025933229997463;001;EftPx;2019_May_22_1524;iat_vr;59.753016046789334;
7;SCHÄDLICH;negativ;q;1;2;22;13;q;1;0.6220091509994745;001;EftPx;2019_May_22_1524;iat_vr;59.753016046789334;
7;LAMPE;Gemacht;q;1;3;23;9;q;1;0.8055051789997378;001;EftPx;2019_May_22_1524;iat_vr;59.753016046789334;
7;BLUME;Natur;p;1;4;24;2;q;0;0.755898458000047;001;EftPx;2019_May_22_1524;iat_vr;59.753016046789334;
7;TIER;Natur;p;1;5;25;3;p;1;0.6562217030004831;001;EftPx;2019_May_22_1524;iat_vr;59.753016046789334;
7;KLEIDER;Gemacht;q;1;6;26;7;q;1;0.9555515970005217;001;EftPx;2019_May_22_1524;iat_vr;59.753016046789334;
7;SCHWACH;negativ;q;1;7;27;14;q;1;1.2544445769999584;001;EftPx;2019_May_22_1524;iat_vr;59.753016046789334;
7;WASSER;Natur;p;1;8;28;1;q;0;1.272227491999729;001;EftPx;2019_May_22_1524;iat_vr;59.753016046789334;
7;GUT;positiv;p;1;9;29;19;p;1;0.9561269149999134;001;EftPx;2019_May_22_1524;iat_vr;59.753016046789334;
7;STADT;Gemacht;q;1;10;30;6;p;0;0.8050975579999431;001;EftPx;2019_May_22_1524;iat_vr;59.753016046789334;
7;GEBÄUDE;Gemacht;q;1;11;31;5;q;1;0.6556222059998618;001;EftPx;2019_May_22_1524;iat_vr;59.753016046789334;
7;EINWANDFREI;positiv;p;1;12;32;16;p;1;1.8386059220001698;001;EftPx;2019_May_22_1524;iat_vr;59.753016046789334;
7;STEIN;Natur;p;1;13;33;4;q;0;0.9556035180003164;001;EftPx;2019_May_22_1524;iat_vr;59.753016046789334;
7;SCHLECHT;negativ;q;1;14;34;11;q;1;1.1887478039998314;001;EftPx;2019_May_22_1524;iat_vr;59.753016046789334;
7;POSITIV;positiv;p;1;15;35;18;p;1;0.8556989469998371;001;EftPx;2019_May_22_1524;iat_vr;59.753016046789334;
7;NEGATIV;negativ;q;1;16;36;12;q;1;0.7186008119997496;001;EftPx;2019_May_22_1524;iat_vr;59.753016046789334;
7;AUSGEZEICHNET;positiv;p;1;17;37;15;p;1;1.0052724950000993;001;EftPx;2019_May_22_1524;iat_vr;59.753016046789334;
7;HERVORRAGEND;positiv;p;1;18;38;17;p;1;0.6878963690005548;001;EftPx;2019_May_22_1524;iat_vr;59.753016046789334;
7;BAUM;Natur;p;1;19;39;0;q;0;1.2517760979999366;001;EftPx;2019_May_22_1524;iat_vr;59.753016046789334;
;;;;;;;;;;;001;EftPx;2019_May_22_1524;iat_vr;59.753016046789334;
