Block;Word;Category;CorrResp;trials.thisRepN;trials.thisTrialN;trials.thisN;trials.thisIndex;key_resp_2.keys;key_resp_2.corr;key_resp_2.rt;session;participant;date;expName;frameRate;
1;STEIN;Natur;q;0;0;0;4;q;1;1.2051715379930101;002;kim;2019_Jul_01_1824;iat_vr;59.75750869123016;
1;GEBÄUDE;Gemacht;p;0;1;1;5;p;1;0.7044833409890998;002;kim;2019_Jul_01_1824;iat_vr;59.75750869123016;
1;LAMPE;Gemacht;p;0;2;2;9;p;1;0.755181923013879;002;kim;2019_Jul_01_1824;iat_vr;59.75750869123016;
1;WASSER;Natur;q;0;3;3;1;q;1;0.937889395019738;002;kim;2019_Jul_01_1824;iat_vr;59.75750869123016;
1;BAUM;Natur;q;0;4;4;0;q;1;0.6355026369856205;002;kim;2019_Jul_01_1824;iat_vr;59.75750869123016;
1;COMPUTER;Gemacht;p;0;5;5;8;p;1;0.6210364089929499;002;kim;2019_Jul_01_1824;iat_vr;59.75750869123016;
1;BLUME;Natur;q;0;6;6;2;q;1;0.6560149259748869;002;kim;2019_Jul_01_1824;iat_vr;59.75750869123016;
1;STADT;Gemacht;p;0;7;7;6;p;1;0.8560655640030745;002;kim;2019_Jul_01_1824;iat_vr;59.75750869123016;
1;KLEIDER;Gemacht;p;0;8;8;7;p;1;1.0715977619984187;002;kim;2019_Jul_01_1824;iat_vr;59.75750869123016;
1;TIER;Natur;q;0;9;9;3;q;1;0.6066198969783727;002;kim;2019_Jul_01_1824;iat_vr;59.75750869123016;
1;COMPUTER;Gemacht;p;1;0;10;8;p;1;0.6220963519881479;002;kim;2019_Jul_01_1824;iat_vr;59.75750869123016;
1;WASSER;Natur;q;1;1;11;1;q;1;0.5716447870072443;002;kim;2019_Jul_01_1824;iat_vr;59.75750869123016;
1;BLUME;Natur;q;1;2;12;2;q;1;0.7897362479998264;002;kim;2019_Jul_01_1824;iat_vr;59.75750869123016;
1;STADT;Gemacht;p;1;3;13;6;p;1;0.6559516449924558;002;kim;2019_Jul_01_1824;iat_vr;59.75750869123016;
1;STEIN;Natur;q;1;4;14;4;q;1;0.6061098299978767;002;kim;2019_Jul_01_1824;iat_vr;59.75750869123016;
1;KLEIDER;Gemacht;p;1;5;15;7;p;1;0.8227014979929663;002;kim;2019_Jul_01_1824;iat_vr;59.75750869123016;
1;LAMPE;Gemacht;p;1;6;16;9;p;1;0.6725908690132201;002;kim;2019_Jul_01_1824;iat_vr;59.75750869123016;
1;BAUM;Natur;q;1;7;17;0;q;1;0.9063717900135089;002;kim;2019_Jul_01_1824;iat_vr;59.75750869123016;
1;GEBÄUDE;Gemacht;p;1;8;18;5;p;1;0.6390191169921309;002;kim;2019_Jul_01_1824;iat_vr;59.75750869123016;
1;TIER;Natur;q;1;9;19;3;q;1;0.5707580489979591;002;kim;2019_Jul_01_1824;iat_vr;59.75750869123016;
;;;;;;;;;;;002;kim;2019_Jul_01_1824;iat_vr;59.75750869123016;
2;NEGATIV;negativ;q;0;0;0;2;q;1;0.9047147590026725;002;kim;2019_Jul_01_1824;iat_vr;59.75750869123016;
2;SCHWACH;negativ;q;0;1;1;4;q;1;0.6707181620004121;002;kim;2019_Jul_01_1824;iat_vr;59.75750869123016;
2;SCHÄDLICH;negativ;q;0;2;2;3;q;1;0.9708135449909605;002;kim;2019_Jul_01_1824;iat_vr;59.75750869123016;
2;SCHLIMM;negativ;q;0;3;3;0;q;1;1.6392712090164423;002;kim;2019_Jul_01_1824;iat_vr;59.75750869123016;
2;HERVORRAGEND;positiv;p;0;4;4;7;p;1;0.5713954329839908;002;kim;2019_Jul_01_1824;iat_vr;59.75750869123016;
2;EINWANDFREI;positiv;p;0;5;5;6;p;1;0.569511556008365;002;kim;2019_Jul_01_1824;iat_vr;59.75750869123016;
2;AUSGEZEICHNET;positiv;p;0;6;6;5;p;1;0.6213397399988025;002;kim;2019_Jul_01_1824;iat_vr;59.75750869123016;
2;POSITIV;positiv;p;0;7;7;8;p;1;0.5882180099724792;002;kim;2019_Jul_01_1824;iat_vr;59.75750869123016;
2;SCHLECHT;negativ;q;0;8;8;1;q;1;0.5552949580014683;002;kim;2019_Jul_01_1824;iat_vr;59.75750869123016;
2;GUT;positiv;p;0;9;9;9;p;1;0.8039885289908852;002;kim;2019_Jul_01_1824;iat_vr;59.75750869123016;
2;POSITIV;positiv;p;1;0;10;8;p;1;0.5721929389983416;002;kim;2019_Jul_01_1824;iat_vr;59.75750869123016;
2;SCHWACH;negativ;q;1;1;11;4;q;1;0.57105934098945;002;kim;2019_Jul_01_1824;iat_vr;59.75750869123016;
2;EINWANDFREI;positiv;p;1;2;12;6;p;1;0.5883802040189039;002;kim;2019_Jul_01_1824;iat_vr;59.75750869123016;
2;SCHLECHT;negativ;q;1;3;13;1;q;1;0.638827309012413;002;kim;2019_Jul_01_1824;iat_vr;59.75750869123016;
2;SCHÄDLICH;negativ;q;1;4;14;3;q;1;0.7219640169932973;002;kim;2019_Jul_01_1824;iat_vr;59.75750869123016;
2;SCHLIMM;negativ;q;1;5;15;0;q;1;0.6889185390027706;002;kim;2019_Jul_01_1824;iat_vr;59.75750869123016;
2;HERVORRAGEND;positiv;p;1;6;16;7;p;1;0.6708590199996252;002;kim;2019_Jul_01_1824;iat_vr;59.75750869123016;
2;AUSGEZEICHNET;positiv;p;1;7;17;5;p;1;0.5212352480157278;002;kim;2019_Jul_01_1824;iat_vr;59.75750869123016;
2;GUT;positiv;p;1;8;18;9;p;1;0.7062769909971394;002;kim;2019_Jul_01_1824;iat_vr;59.75750869123016;
2;NEGATIV;negativ;q;1;9;19;2;q;1;0.5883894620055798;002;kim;2019_Jul_01_1824;iat_vr;59.75750869123016;
;;;;;;;;;;;002;kim;2019_Jul_01_1824;iat_vr;59.75750869123016;
3;COMPUTER;Gemacht;p;0;0;0;18;p;1;1.8387174909876194;002;kim;2019_Jul_01_1824;iat_vr;59.75750869123016;
3;KLEIDER;Gemacht;p;0;1;1;17;p;1;0.8058595879992936;002;kim;2019_Jul_01_1824;iat_vr;59.75750869123016;
3;POSITIV;positiv;p;0;2;2;8;p;1;0.6711594179796521;002;kim;2019_Jul_01_1824;iat_vr;59.75750869123016;
3;NEGATIV;negativ;q;0;3;3;2;q;1;0.6722005449992139;002;kim;2019_Jul_01_1824;iat_vr;59.75750869123016;
3;SCHÄDLICH;negativ;q;0;4;4;3;q;1;0.7546951450058259;002;kim;2019_Jul_01_1824;iat_vr;59.75750869123016;
3;BAUM;Natur;q;0;5;5;10;q;1;0.7366762949968688;002;kim;2019_Jul_01_1824;iat_vr;59.75750869123016;
3;WASSER;Natur;q;0;6;6;11;q;1;0.6892896859790199;002;kim;2019_Jul_01_1824;iat_vr;59.75750869123016;
3;SCHWACH;negativ;q;0;7;7;4;q;1;0.868944718997227;002;kim;2019_Jul_01_1824;iat_vr;59.75750869123016;
3;EINWANDFREI;positiv;p;0;8;8;6;p;1;1.1885260970157105;002;kim;2019_Jul_01_1824;iat_vr;59.75750869123016;
3;STADT;Gemacht;p;0;9;9;16;p;1;1.5395454579847865;002;kim;2019_Jul_01_1824;iat_vr;59.75750869123016;
3;HERVORRAGEND;positiv;p;0;10;10;7;p;1;1.9719688979967032;002;kim;2019_Jul_01_1824;iat_vr;59.75750869123016;
3;AUSGEZEICHNET;positiv;p;0;11;11;5;p;1;1.6542807920195628;002;kim;2019_Jul_01_1824;iat_vr;59.75750869123016;
3;SCHLECHT;negativ;q;0;12;12;1;q;1;0.7888262259948533;002;kim;2019_Jul_01_1824;iat_vr;59.75750869123016;
3;BLUME;Natur;q;0;13;13;12;q;1;0.8220841370057315;002;kim;2019_Jul_01_1824;iat_vr;59.75750869123016;
3;LAMPE;Gemacht;p;0;14;14;19;p;1;0.7060181450215168;002;kim;2019_Jul_01_1824;iat_vr;59.75750869123016;
3;TIER;Natur;q;0;15;15;13;q;1;0.7839774349995423;002;kim;2019_Jul_01_1824;iat_vr;59.75750869123016;
3;GEBÄUDE;Gemacht;p;0;16;16;15;p;1;1.421462081023492;002;kim;2019_Jul_01_1824;iat_vr;59.75750869123016;
3;STEIN;Natur;q;0;17;17;14;q;1;0.9892546159971971;002;kim;2019_Jul_01_1824;iat_vr;59.75750869123016;
3;GUT;positiv;p;0;18;18;9;p;1;1.0900073090160731;002;kim;2019_Jul_01_1824;iat_vr;59.75750869123016;
3;SCHLIMM;negativ;q;0;19;19;0;q;1;0.921442412014585;002;kim;2019_Jul_01_1824;iat_vr;59.75750869123016;
;;;;;;;;;;;002;kim;2019_Jul_01_1824;iat_vr;59.75750869123016;
4;AUSGEZEICHNET;positiv;p;0;0;0;5;p;1;1.0884871929883957;002;kim;2019_Jul_01_1824;iat_vr;59.75750869123016;
4;COMPUTER;Gemacht;p;0;1;1;18;p;1;0.6889707049995195;002;kim;2019_Jul_01_1824;iat_vr;59.75750869123016;
4;SCHWACH;negativ;q;0;2;2;4;q;1;0.7724420150043443;002;kim;2019_Jul_01_1824;iat_vr;59.75750869123016;
4;NEGATIV;negativ;q;0;3;3;2;q;1;0.6726106819987763;002;kim;2019_Jul_01_1824;iat_vr;59.75750869123016;
4;KLEIDER;Gemacht;p;0;4;4;17;p;1;1.0686117919976823;002;kim;2019_Jul_01_1824;iat_vr;59.75750869123016;
4;HERVORRAGEND;positiv;p;0;5;5;7;p;1;0.9509941269934643;002;kim;2019_Jul_01_1824;iat_vr;59.75750869123016;
4;STEIN;Natur;q;0;6;6;14;q;1;0.67282707997947;002;kim;2019_Jul_01_1824;iat_vr;59.75750869123016;
4;BAUM;Natur;q;0;7;7;10;q;1;0.6563937899773009;002;kim;2019_Jul_01_1824;iat_vr;59.75750869123016;
4;BLUME;Natur;q;0;8;8;12;q;1;1.4542660220176913;002;kim;2019_Jul_01_1824;iat_vr;59.75750869123016;
4;SCHLECHT;negativ;q;0;9;9;1;q;1;0.6379888369992841;002;kim;2019_Jul_01_1824;iat_vr;59.75750869123016;
4;WASSER;Natur;q;0;10;10;11;q;1;1.0531686570029706;002;kim;2019_Jul_01_1824;iat_vr;59.75750869123016;
4;EINWANDFREI;positiv;p;0;11;11;6;p;1;0.8556775060133077;002;kim;2019_Jul_01_1824;iat_vr;59.75750869123016;
4;SCHÄDLICH;negativ;q;0;12;12;3;q;1;1.072230749996379;002;kim;2019_Jul_01_1824;iat_vr;59.75750869123016;
4;STADT;Gemacht;p;0;13;13;16;p;1;0.7229429339931812;002;kim;2019_Jul_01_1824;iat_vr;59.75750869123016;
4;SCHLIMM;negativ;q;0;14;14;0;q;1;0.7554578210110776;002;kim;2019_Jul_01_1824;iat_vr;59.75750869123016;
4;TIER;Natur;q;0;15;15;13;q;1;1.217484289983986;002;kim;2019_Jul_01_1824;iat_vr;59.75750869123016;
4;LAMPE;Gemacht;p;0;16;16;19;p;1;0.6895870380103588;002;kim;2019_Jul_01_1824;iat_vr;59.75750869123016;
4;GEBÄUDE;Gemacht;p;0;17;17;15;p;1;1.6056767260015476;002;kim;2019_Jul_01_1824;iat_vr;59.75750869123016;
4;POSITIV;positiv;p;0;18;18;8;p;1;0.5551429869956337;002;kim;2019_Jul_01_1824;iat_vr;59.75750869123016;
4;GUT;positiv;p;0;19;19;9;p;1;0.6212365879910067;002;kim;2019_Jul_01_1824;iat_vr;59.75750869123016;
4;WASSER;Natur;q;1;0;20;11;q;1;0.7559223069984;002;kim;2019_Jul_01_1824;iat_vr;59.75750869123016;
4;BLUME;Natur;q;1;1;21;12;q;1;1.7557275790022686;002;kim;2019_Jul_01_1824;iat_vr;59.75750869123016;
4;NEGATIV;negativ;q;1;2;22;2;q;1;0.6056272000132594;002;kim;2019_Jul_01_1824;iat_vr;59.75750869123016;
4;HERVORRAGEND;positiv;p;1;3;23;7;p;1;0.6875100510078482;002;kim;2019_Jul_01_1824;iat_vr;59.75750869123016;
4;AUSGEZEICHNET;positiv;p;1;4;24;5;p;1;0.6380815610173158;002;kim;2019_Jul_01_1824;iat_vr;59.75750869123016;
4;POSITIV;positiv;p;1;5;25;8;p;1;0.755747571005486;002;kim;2019_Jul_01_1824;iat_vr;59.75750869123016;
4;STEIN;Natur;q;1;6;26;14;q;1;0.6727361569937784;002;kim;2019_Jul_01_1824;iat_vr;59.75750869123016;
4;SCHLIMM;negativ;q;1;7;27;0;q;1;0.7219915919995401;002;kim;2019_Jul_01_1824;iat_vr;59.75750869123016;
4;GUT;positiv;p;1;8;28;9;p;1;1.3681836479809135;002;kim;2019_Jul_01_1824;iat_vr;59.75750869123016;
4;SCHWACH;negativ;q;1;9;29;4;q;1;0.655048621003516;002;kim;2019_Jul_01_1824;iat_vr;59.75750869123016;
4;BAUM;Natur;q;1;10;30;10;q;1;0.739906211005291;002;kim;2019_Jul_01_1824;iat_vr;59.75750869123016;
4;KLEIDER;Gemacht;p;1;11;31;17;p;1;0.6721381450188346;002;kim;2019_Jul_01_1824;iat_vr;59.75750869123016;
4;GEBÄUDE;Gemacht;p;1;12;32;15;p;1;1.0562544720014557;002;kim;2019_Jul_01_1824;iat_vr;59.75750869123016;
4;COMPUTER;Gemacht;p;1;13;33;18;p;1;0.7219926579855382;002;kim;2019_Jul_01_1824;iat_vr;59.75750869123016;
4;STADT;Gemacht;p;1;14;34;16;p;1;0.9561943159787916;002;kim;2019_Jul_01_1824;iat_vr;59.75750869123016;
4;SCHLECHT;negativ;q;1;15;35;1;q;1;0.7222188389860094;002;kim;2019_Jul_01_1824;iat_vr;59.75750869123016;
4;EINWANDFREI;positiv;p;1;16;36;6;p;1;1.7879841699905228;002;kim;2019_Jul_01_1824;iat_vr;59.75750869123016;
4;TIER;Natur;q;1;17;37;13;q;1;0.8225980490096845;002;kim;2019_Jul_01_1824;iat_vr;59.75750869123016;
4;SCHÄDLICH;negativ;q;1;18;38;3;q;1;1.238816407014383;002;kim;2019_Jul_01_1824;iat_vr;59.75750869123016;
4;LAMPE;Gemacht;p;1;19;39;19;p;1;1.773354659002507;002;kim;2019_Jul_01_1824;iat_vr;59.75750869123016;
;;;;;;;;;;;002;kim;2019_Jul_01_1824;iat_vr;59.75750869123016;
5;STADT;Gemacht;q;0;0;0;6;q;1;2.2550026360258926;002;kim;2019_Jul_01_1824;iat_vr;59.75750869123016;
5;BAUM;Natur;p;0;1;1;0;p;1;0.7369158350047655;002;kim;2019_Jul_01_1824;iat_vr;59.75750869123016;
5;BLUME;Natur;p;0;2;2;2;p;1;0.871997026988538;002;kim;2019_Jul_01_1824;iat_vr;59.75750869123016;
5;KLEIDER;Gemacht;q;0;3;3;7;q;1;0.7224795860238373;002;kim;2019_Jul_01_1824;iat_vr;59.75750869123016;
5;STEIN;Natur;p;0;4;4;4;p;1;0.8727402339864057;002;kim;2019_Jul_01_1824;iat_vr;59.75750869123016;
5;TIER;Natur;p;0;5;5;3;p;1;0.9222558790061157;002;kim;2019_Jul_01_1824;iat_vr;59.75750869123016;
5;WASSER;Natur;p;0;6;6;1;p;1;0.7559329039941076;002;kim;2019_Jul_01_1824;iat_vr;59.75750869123016;
5;COMPUTER;Gemacht;q;0;7;7;8;q;1;1.0385586859774776;002;kim;2019_Jul_01_1824;iat_vr;59.75750869123016;
5;LAMPE;Gemacht;q;0;8;8;9;q;1;0.685927760991035;002;kim;2019_Jul_01_1824;iat_vr;59.75750869123016;
5;GEBÄUDE;Gemacht;q;0;9;9;5;q;1;0.9724163100181613;002;kim;2019_Jul_01_1824;iat_vr;59.75750869123016;
5;TIER;Natur;p;1;0;10;3;p;1;0.6222360169922467;002;kim;2019_Jul_01_1824;iat_vr;59.75750869123016;
5;LAMPE;Gemacht;q;1;1;11;9;q;1;1.455877326981863;002;kim;2019_Jul_01_1824;iat_vr;59.75750869123016;
5;STEIN;Natur;p;1;2;12;4;p;1;0.8389982089865953;002;kim;2019_Jul_01_1824;iat_vr;59.75750869123016;
5;STADT;Gemacht;q;1;3;13;6;q;1;1.5899419309862424;002;kim;2019_Jul_01_1824;iat_vr;59.75750869123016;
5;BAUM;Natur;p;1;4;14;0;p;1;0.6710194649931509;002;kim;2019_Jul_01_1824;iat_vr;59.75750869123016;
5;KLEIDER;Gemacht;q;1;5;15;7;q;1;0.7715153669996653;002;kim;2019_Jul_01_1824;iat_vr;59.75750869123016;
5;WASSER;Natur;p;1;6;16;1;p;1;0.822774547006702;002;kim;2019_Jul_01_1824;iat_vr;59.75750869123016;
5;COMPUTER;Gemacht;q;1;7;17;8;q;1;0.6055692959926091;002;kim;2019_Jul_01_1824;iat_vr;59.75750869123016;
5;BLUME;Natur;p;1;8;18;2;p;1;0.8061680420069024;002;kim;2019_Jul_01_1824;iat_vr;59.75750869123016;
5;GEBÄUDE;Gemacht;q;1;9;19;5;q;1;0.5710431300103664;002;kim;2019_Jul_01_1824;iat_vr;59.75750869123016;
;;;;;;;;;;;002;kim;2019_Jul_01_1824;iat_vr;59.75750869123016;
6;GEBÄUDE;Gemacht;q;0;0;0;5;q;1;2.3387265269993804;002;kim;2019_Jul_01_1824;iat_vr;59.75750869123016;
6;SCHLIMM;negativ;q;0;1;1;10;q;1;0.6382940399926156;002;kim;2019_Jul_01_1824;iat_vr;59.75750869123016;
6;BLUME;Natur;p;0;2;2;2;p;1;0.8227703480224591;002;kim;2019_Jul_01_1824;iat_vr;59.75750869123016;
6;TIER;Natur;p;0;3;3;3;p;1;0.7564010429778136;002;kim;2019_Jul_01_1824;iat_vr;59.75750869123016;
6;LAMPE;Gemacht;q;0;4;4;9;q;1;0.7053922860068269;002;kim;2019_Jul_01_1824;iat_vr;59.75750869123016;
6;STADT;Gemacht;q;0;5;5;6;p;0;1.10225833801087;002;kim;2019_Jul_01_1824;iat_vr;59.75750869123016;
6;SCHÄDLICH;negativ;q;0;6;6;13;q;1;0.8883724180050194;002;kim;2019_Jul_01_1824;iat_vr;59.75750869123016;
6;GUT;positiv;p;0;7;7;19;p;1;0.9230324500240386;002;kim;2019_Jul_01_1824;iat_vr;59.75750869123016;
6;NEGATIV;negativ;q;0;8;8;12;q;1;0.7853241109987721;002;kim;2019_Jul_01_1824;iat_vr;59.75750869123016;
6;SCHWACH;negativ;q;0;9;9;14;q;1;0.6391838490089867;002;kim;2019_Jul_01_1824;iat_vr;59.75750869123016;
6;HERVORRAGEND;positiv;p;0;10;10;17;p;1;0.8878215900040232;002;kim;2019_Jul_01_1824;iat_vr;59.75750869123016;
6;EINWANDFREI;positiv;p;0;11;11;16;p;1;0.6713940220070072;002;kim;2019_Jul_01_1824;iat_vr;59.75750869123016;
6;STEIN;Natur;p;0;12;12;4;p;1;1.0896414429880679;002;kim;2019_Jul_01_1824;iat_vr;59.75750869123016;
6;SCHLECHT;negativ;q;0;13;13;11;q;1;0.7721495479927398;002;kim;2019_Jul_01_1824;iat_vr;59.75750869123016;
6;AUSGEZEICHNET;positiv;p;0;14;14;15;p;1;0.6872850589861628;002;kim;2019_Jul_01_1824;iat_vr;59.75750869123016;
6;BAUM;Natur;p;0;15;15;0;p;1;1.0530402610020246;002;kim;2019_Jul_01_1824;iat_vr;59.75750869123016;
6;WASSER;Natur;p;0;16;16;1;p;1;0.7387896170257591;002;kim;2019_Jul_01_1824;iat_vr;59.75750869123016;
6;POSITIV;positiv;p;0;17;17;18;p;1;2.0210109380132053;002;kim;2019_Jul_01_1824;iat_vr;59.75750869123016;
6;COMPUTER;Gemacht;q;0;18;18;8;p;0;0.889060112007428;002;kim;2019_Jul_01_1824;iat_vr;59.75750869123016;
6;KLEIDER;Gemacht;q;0;19;19;7;q;1;2.7233104580082;002;kim;2019_Jul_01_1824;iat_vr;59.75750869123016;
;;;;;;;;;;;002;kim;2019_Jul_01_1824;iat_vr;59.75750869123016;
7;TIER;Natur;p;0;0;0;3;p;1;1.2387646900024265;002;kim;2019_Jul_01_1824;iat_vr;59.75750869123016;
7;LAMPE;Gemacht;q;0;1;1;9;q;1;0.9219421710004099;002;kim;2019_Jul_01_1824;iat_vr;59.75750869123016;
7;COMPUTER;Gemacht;q;0;2;2;8;p;0;1.2226850200095214;002;kim;2019_Jul_01_1824;iat_vr;59.75750869123016;
7;POSITIV;positiv;p;0;3;3;18;p;1;0.8056535109935794;002;kim;2019_Jul_01_1824;iat_vr;59.75750869123016;
7;STADT;Gemacht;q;0;4;4;6;q;1;0.7230958639993332;002;kim;2019_Jul_01_1824;iat_vr;59.75750869123016;
7;GUT;positiv;p;0;5;5;19;p;1;0.8378460590029135;002;kim;2019_Jul_01_1824;iat_vr;59.75750869123016;
7;HERVORRAGEND;positiv;p;0;6;6;17;p;1;0.6548259659903124;002;kim;2019_Jul_01_1824;iat_vr;59.75750869123016;
7;SCHLECHT;negativ;q;0;7;7;11;q;1;0.8553954740054905;002;kim;2019_Jul_01_1824;iat_vr;59.75750869123016;
7;NEGATIV;negativ;q;0;8;8;12;q;1;0.6354390119959135;002;kim;2019_Jul_01_1824;iat_vr;59.75750869123016;
7;GEBÄUDE;Gemacht;q;0;9;9;5;q;1;0.7381251390033867;002;kim;2019_Jul_01_1824;iat_vr;59.75750869123016;
7;BLUME;Natur;p;0;10;10;2;p;1;0.6893163330096286;002;kim;2019_Jul_01_1824;iat_vr;59.75750869123016;
7;SCHÄDLICH;negativ;q;0;11;11;13;q;1;0.7886610669957008;002;kim;2019_Jul_01_1824;iat_vr;59.75750869123016;
7;KLEIDER;Gemacht;q;0;12;12;7;q;1;0.6892635760013945;002;kim;2019_Jul_01_1824;iat_vr;59.75750869123016;
7;EINWANDFREI;positiv;p;0;13;13;16;p;1;0.820555949001573;002;kim;2019_Jul_01_1824;iat_vr;59.75750869123016;
7;WASSER;Natur;p;0;14;14;1;p;1;1.055751934996806;002;kim;2019_Jul_01_1824;iat_vr;59.75750869123016;
7;STEIN;Natur;p;0;15;15;4;p;1;0.6875852090015542;002;kim;2019_Jul_01_1824;iat_vr;59.75750869123016;
7;SCHLIMM;negativ;q;0;16;16;10;q;1;0.6888145900156815;002;kim;2019_Jul_01_1824;iat_vr;59.75750869123016;
7;SCHWACH;negativ;q;0;17;17;14;q;1;0.6715586130158044;002;kim;2019_Jul_01_1824;iat_vr;59.75750869123016;
7;BAUM;Natur;p;0;18;18;0;p;1;0.8213603750045877;002;kim;2019_Jul_01_1824;iat_vr;59.75750869123016;
7;AUSGEZEICHNET;positiv;p;0;19;19;15;p;1;0.8548920959874522;002;kim;2019_Jul_01_1824;iat_vr;59.75750869123016;
7;SCHLECHT;negativ;q;1;0;20;11;q;1;1.5035464379761834;002;kim;2019_Jul_01_1824;iat_vr;59.75750869123016;
7;BAUM;Natur;p;1;1;21;0;p;1;0.7380026459868532;002;kim;2019_Jul_01_1824;iat_vr;59.75750869123016;
7;EINWANDFREI;positiv;p;1;2;22;16;p;1;1.2713840229844209;002;kim;2019_Jul_01_1824;iat_vr;59.75750869123016;
7;POSITIV;positiv;p;1;3;23;18;p;1;0.6722302720008884;002;kim;2019_Jul_01_1824;iat_vr;59.75750869123016;
7;STADT;Gemacht;q;1;4;24;6;q;1;0.9560673850064632;002;kim;2019_Jul_01_1824;iat_vr;59.75750869123016;
7;SCHÄDLICH;negativ;q;1;5;25;13;q;1;0.7717562500038184;002;kim;2019_Jul_01_1824;iat_vr;59.75750869123016;
7;HERVORRAGEND;positiv;p;1;6;26;17;p;1;1.0545889659842942;002;kim;2019_Jul_01_1824;iat_vr;59.75750869123016;
7;STEIN;Natur;p;1;7;27;4;p;1;0.905467986012809;002;kim;2019_Jul_01_1824;iat_vr;59.75750869123016;
7;AUSGEZEICHNET;positiv;p;1;8;28;15;p;1;1.1380023570090998;002;kim;2019_Jul_01_1824;iat_vr;59.75750869123016;
7;COMPUTER;Gemacht;q;1;9;29;8;q;1;0.7382303379999939;002;kim;2019_Jul_01_1824;iat_vr;59.75750869123016;
7;BLUME;Natur;p;1;10;30;2;p;1;1.4565121359773912;002;kim;2019_Jul_01_1824;iat_vr;59.75750869123016;
7;TIER;Natur;p;1;11;31;3;p;1;0.7044430440000724;002;kim;2019_Jul_01_1824;iat_vr;59.75750869123016;
7;SCHWACH;negativ;q;1;12;32;14;q;1;0.92193590401439;002;kim;2019_Jul_01_1824;iat_vr;59.75750869123016;
7;GUT;positiv;p;1;13;33;19;p;1;0.6709540919982828;002;kim;2019_Jul_01_1824;iat_vr;59.75750869123016;
7;GEBÄUDE;Gemacht;q;1;14;34;5;q;1;1.9025792590109631;002;kim;2019_Jul_01_1824;iat_vr;59.75750869123016;
7;LAMPE;Gemacht;q;1;15;35;9;q;1;0.6392114290210884;002;kim;2019_Jul_01_1824;iat_vr;59.75750869123016;
7;SCHLIMM;negativ;q;1;16;36;10;q;1;2.5894809780002106;002;kim;2019_Jul_01_1824;iat_vr;59.75750869123016;
7;KLEIDER;Gemacht;q;1;17;37;7;q;1;1.288448064995464;002;kim;2019_Jul_01_1824;iat_vr;59.75750869123016;
7;WASSER;Natur;p;1;18;38;1;p;1;0.6715535330004059;002;kim;2019_Jul_01_1824;iat_vr;59.75750869123016;
7;NEGATIV;negativ;q;1;19;39;12;q;1;0.7049528100178577;002;kim;2019_Jul_01_1824;iat_vr;59.75750869123016;
;;;;;;;;;;;002;kim;2019_Jul_01_1824;iat_vr;59.75750869123016;
