Block;Word;Category;CorrResp;trials.thisRepN;trials.thisTrialN;trials.thisN;trials.thisIndex;key_resp_2.keys;key_resp_2.corr;key_resp_2.rt;session;participant;date;expName;frameRate;
1;LAMPE;Gemacht;p;0;0;0;9;p;1;1.7724190990011266;001;sutti;2019_May_10_1555;iat_vr;60.0502150712732;
1;COMPUTER;Gemacht;p;0;1;1;8;p;1;0.9538675639996654;001;sutti;2019_May_10_1555;iat_vr;60.0502150712732;
1;KLEIDER;Gemacht;p;0;2;2;7;p;1;1.2554779229976702;001;sutti;2019_May_10_1555;iat_vr;60.0502150712732;
1;STADT;Gemacht;p;0;3;3;6;p;1;0.8042002249967481;001;sutti;2019_May_10_1555;iat_vr;60.0502150712732;
1;WASSER;Natur;q;0;4;4;1;q;1;0.7212009989998478;001;sutti;2019_May_10_1555;iat_vr;60.0502150712732;
1;GEBÄUDE;Gemacht;p;0;5;5;5;p;1;0.7378481839987217;001;sutti;2019_May_10_1555;iat_vr;60.0502150712732;
1;BLUME;Natur;q;0;6;6;2;q;1;0.6541166669994709;001;sutti;2019_May_10_1555;iat_vr;60.0502150712732;
1;BAUM;Natur;q;0;7;7;0;q;1;0.7898117009972339;001;sutti;2019_May_10_1555;iat_vr;60.0502150712732;
1;TIER;Natur;q;0;8;8;3;q;1;1.4399085830009426;001;sutti;2019_May_10_1555;iat_vr;60.0502150712732;
1;STEIN;Natur;q;0;9;9;4;q;1;0.7544178950010973;001;sutti;2019_May_10_1555;iat_vr;60.0502150712732;
1;LAMPE;Gemacht;p;1;0;10;9;p;1;0.6725468939985149;001;sutti;2019_May_10_1555;iat_vr;60.0502150712732;
1;WASSER;Natur;q;1;1;11;1;q;1;0.7728147390007507;001;sutti;2019_May_10_1555;iat_vr;60.0502150712732;
1;COMPUTER;Gemacht;p;1;2;12;8;p;1;0.8043482319990289;001;sutti;2019_May_10_1555;iat_vr;60.0502150712732;
1;STADT;Gemacht;p;1;3;13;6;p;1;1.3060130799967737;001;sutti;2019_May_10_1555;iat_vr;60.0502150712732;
1;GEBÄUDE;Gemacht;p;1;4;14;5;p;1;0.7893406630028039;001;sutti;2019_May_10_1555;iat_vr;60.0502150712732;
1;KLEIDER;Gemacht;p;1;5;15;7;p;1;0.639089355001488;001;sutti;2019_May_10_1555;iat_vr;60.0502150712732;
1;BAUM;Natur;q;1;6;16;0;q;1;0.7213214219991642;001;sutti;2019_May_10_1555;iat_vr;60.0502150712732;
1;TIER;Natur;q;1;7;17;3;q;1;0.754481289000978;001;sutti;2019_May_10_1555;iat_vr;60.0502150712732;
1;BLUME;Natur;q;1;8;18;2;q;1;0.6223599259974435;001;sutti;2019_May_10_1555;iat_vr;60.0502150712732;
1;STEIN;Natur;q;1;9;19;4;q;1;0.9553834320031456;001;sutti;2019_May_10_1555;iat_vr;60.0502150712732;
;;;;;;;;;;;001;sutti;2019_May_10_1555;iat_vr;60.0502150712732;
2;SCHLIMM;negativ;q;0;0;0;0;q;1;1.4554829690023325;001;sutti;2019_May_10_1555;iat_vr;60.0502150712732;
2;HERVORRAGEND;positiv;p;0;1;1;7;p;1;0.8710566590016242;001;sutti;2019_May_10_1555;iat_vr;60.0502150712732;
2;NEGATIV;negativ;q;0;2;2;2;q;1;0.8725733389983361;001;sutti;2019_May_10_1555;iat_vr;60.0502150712732;
2;EINWANDFREI;positiv;p;0;3;3;6;p;1;0.9208565689987154;001;sutti;2019_May_10_1555;iat_vr;60.0502150712732;
2;POSITIV;positiv;p;0;4;4;8;p;1;1.4226926660012396;001;sutti;2019_May_10_1555;iat_vr;60.0502150712732;
2;SCHLECHT;negativ;q;0;5;5;1;q;1;0.7686898600004497;001;sutti;2019_May_10_1555;iat_vr;60.0502150712732;
2;SCHWACH;negativ;q;0;6;6;4;q;1;0.6857636790009565;001;sutti;2019_May_10_1555;iat_vr;60.0502150712732;
2;AUSGEZEICHNET;positiv;p;0;7;7;5;p;1;0.7382525899993198;001;sutti;2019_May_10_1555;iat_vr;60.0502150712732;
2;SCHÄDLICH;negativ;q;0;8;8;3;q;1;0.6884865920001175;001;sutti;2019_May_10_1555;iat_vr;60.0502150712732;
2;GUT;positiv;p;0;9;9;9;p;1;0.6884688979989733;001;sutti;2019_May_10_1555;iat_vr;60.0502150712732;
2;SCHLIMM;negativ;q;1;0;10;0;q;1;0.7889334030005557;001;sutti;2019_May_10_1555;iat_vr;60.0502150712732;
2;EINWANDFREI;positiv;p;1;1;11;6;p;1;0.8878606199978094;001;sutti;2019_May_10_1555;iat_vr;60.0502150712732;
2;NEGATIV;negativ;q;1;2;12;2;q;1;0.7025124829997367;001;sutti;2019_May_10_1555;iat_vr;60.0502150712732;
2;AUSGEZEICHNET;positiv;p;1;3;13;5;p;1;1.3881180040007166;001;sutti;2019_May_10_1555;iat_vr;60.0502150712732;
2;SCHWACH;negativ;q;1;4;14;4;q;1;0.7719755910002277;001;sutti;2019_May_10_1555;iat_vr;60.0502150712732;
2;HERVORRAGEND;positiv;p;1;5;15;7;p;1;0.7046466619976854;001;sutti;2019_May_10_1555;iat_vr;60.0502150712732;
2;POSITIV;positiv;p;1;6;16;8;p;1;0.6353612410021015;001;sutti;2019_May_10_1555;iat_vr;60.0502150712732;
2;SCHLECHT;negativ;q;1;7;17;1;q;1;0.6389531450004142;001;sutti;2019_May_10_1555;iat_vr;60.0502150712732;
2;GUT;positiv;p;1;8;18;9;p;1;0.5705424930019944;001;sutti;2019_May_10_1555;iat_vr;60.0502150712732;
2;SCHÄDLICH;negativ;q;1;9;19;3;q;1;0.7353472559989314;001;sutti;2019_May_10_1555;iat_vr;60.0502150712732;
;;;;;;;;;;;001;sutti;2019_May_10_1555;iat_vr;60.0502150712732;
3;NEGATIV;negativ;q;0;0;0;2;q;1;0.8876780760001566;001;sutti;2019_May_10_1555;iat_vr;60.0502150712732;
3;GEBÄUDE;Gemacht;p;0;1;1;15;p;1;1.8383363950015337;001;sutti;2019_May_10_1555;iat_vr;60.0502150712732;
3;STADT;Gemacht;p;0;2;2;16;p;1;0.8716743780023535;001;sutti;2019_May_10_1555;iat_vr;60.0502150712732;
3;COMPUTER;Gemacht;p;0;3;3;18;p;1;0.6558284150014515;001;sutti;2019_May_10_1555;iat_vr;60.0502150712732;
3;EINWANDFREI;positiv;p;0;4;4;6;p;1;0.888302991999808;001;sutti;2019_May_10_1555;iat_vr;60.0502150712732;
3;TIER;Natur;q;0;5;5;13;q;1;0.6230743289997918;001;sutti;2019_May_10_1555;iat_vr;60.0502150712732;
3;BLUME;Natur;q;0;6;6;12;q;1;1.3055470569997851;001;sutti;2019_May_10_1555;iat_vr;60.0502150712732;
3;POSITIV;positiv;p;0;7;7;8;p;1;0.7722842990006029;001;sutti;2019_May_10_1555;iat_vr;60.0502150712732;
3;HERVORRAGEND;positiv;p;0;8;8;7;p;1;1.3370369910007867;001;sutti;2019_May_10_1555;iat_vr;60.0502150712732;
3;SCHLECHT;negativ;q;0;9;9;1;q;1;0.7720395399992412;001;sutti;2019_May_10_1555;iat_vr;60.0502150712732;
3;KLEIDER;Gemacht;p;0;10;10;17;p;1;1.1057673539980897;001;sutti;2019_May_10_1555;iat_vr;60.0502150712732;
3;AUSGEZEICHNET;positiv;p;0;11;11;5;p;1;1.4380555640018429;001;sutti;2019_May_10_1555;iat_vr;60.0502150712732;
3;GUT;positiv;p;0;12;12;9;p;1;0.6710527979994367;001;sutti;2019_May_10_1555;iat_vr;60.0502150712732;
3;SCHLIMM;negativ;q;0;13;13;0;q;1;0.9858993779998855;001;sutti;2019_May_10_1555;iat_vr;60.0502150712732;
3;STEIN;Natur;q;0;14;14;14;q;1;0.6218789249978727;001;sutti;2019_May_10_1555;iat_vr;60.0502150712732;
3;BAUM;Natur;q;0;15;15;10;q;1;0.6063809340012085;001;sutti;2019_May_10_1555;iat_vr;60.0502150712732;
3;LAMPE;Gemacht;p;0;16;16;19;p;1;0.7897545289997652;001;sutti;2019_May_10_1555;iat_vr;60.0502150712732;
3;WASSER;Natur;q;0;17;17;11;q;1;0.6050408889968821;001;sutti;2019_May_10_1555;iat_vr;60.0502150712732;
3;SCHWACH;negativ;q;0;18;18;4;q;1;0.7720017009996809;001;sutti;2019_May_10_1555;iat_vr;60.0502150712732;
3;SCHÄDLICH;negativ;q;0;19;19;3;q;1;1.8725889599991206;001;sutti;2019_May_10_1555;iat_vr;60.0502150712732;
;;;;;;;;;;;001;sutti;2019_May_10_1555;iat_vr;60.0502150712732;
4;BAUM;Natur;q;0;0;0;10;q;1;0.7718298180006968;001;sutti;2019_May_10_1555;iat_vr;60.0502150712732;
4;BLUME;Natur;q;0;1;1;12;q;1;0.6359703449998051;001;sutti;2019_May_10_1555;iat_vr;60.0502150712732;
4;LAMPE;Gemacht;p;0;2;2;19;p;1;0.8396155180016649;001;sutti;2019_May_10_1555;iat_vr;60.0502150712732;
4;SCHLECHT;negativ;q;0;3;3;1;q;1;0.5549353300011717;001;sutti;2019_May_10_1555;iat_vr;60.0502150712732;
4;TIER;Natur;q;0;4;4;13;q;1;0.61949532199651;001;sutti;2019_May_10_1555;iat_vr;60.0502150712732;
4;NEGATIV;negativ;q;0;5;5;2;q;1;0.7558378290013934;001;sutti;2019_May_10_1555;iat_vr;60.0502150712732;
4;COMPUTER;Gemacht;p;0;6;6;18;p;1;0.6687330940003449;001;sutti;2019_May_10_1555;iat_vr;60.0502150712732;
4;SCHLIMM;negativ;q;0;7;7;0;q;1;0.5889526230021147;001;sutti;2019_May_10_1555;iat_vr;60.0502150712732;
4;EINWANDFREI;positiv;p;0;8;8;6;p;1;1.137895159998152;001;sutti;2019_May_10_1555;iat_vr;60.0502150712732;
4;KLEIDER;Gemacht;p;0;9;9;17;p;1;0.9723492470002384;001;sutti;2019_May_10_1555;iat_vr;60.0502150712732;
4;AUSGEZEICHNET;positiv;p;0;10;10;5;p;1;1.1053678579992265;001;sutti;2019_May_10_1555;iat_vr;60.0502150712732;
4;STADT;Gemacht;p;0;11;11;16;p;1;0.6552117989995168;001;sutti;2019_May_10_1555;iat_vr;60.0502150712732;
4;GUT;positiv;p;0;12;12;9;p;1;0.5044976789977227;001;sutti;2019_May_10_1555;iat_vr;60.0502150712732;
4;SCHWACH;negativ;q;0;13;13;4;q;1;0.6392067659980967;001;sutti;2019_May_10_1555;iat_vr;60.0502150712732;
4;HERVORRAGEND;positiv;p;0;14;14;7;p;1;0.8544958630009205;001;sutti;2019_May_10_1555;iat_vr;60.0502150712732;
4;POSITIV;positiv;p;0;15;15;8;p;1;0.8386499150001328;001;sutti;2019_May_10_1555;iat_vr;60.0502150712732;
4;GEBÄUDE;Gemacht;p;0;16;16;15;p;1;0.5875362170008884;001;sutti;2019_May_10_1555;iat_vr;60.0502150712732;
4;STEIN;Natur;q;0;17;17;14;q;1;0.6057825630014122;001;sutti;2019_May_10_1555;iat_vr;60.0502150712732;
4;WASSER;Natur;q;0;18;18;11;q;1;0.45574339000086184;001;sutti;2019_May_10_1555;iat_vr;60.0502150712732;
4;SCHÄDLICH;negativ;q;0;19;19;3;q;1;0.7389656340019428;001;sutti;2019_May_10_1555;iat_vr;60.0502150712732;
4;SCHLECHT;negativ;q;1;0;20;1;q;1;1.372227974999987;001;sutti;2019_May_10_1555;iat_vr;60.0502150712732;
4;STEIN;Natur;q;1;1;21;14;q;1;0.5230424630026391;001;sutti;2019_May_10_1555;iat_vr;60.0502150712732;
4;GUT;positiv;p;1;2;22;9;p;1;0.8396516979992157;001;sutti;2019_May_10_1555;iat_vr;60.0502150712732;
4;BAUM;Natur;q;1;3;23;10;q;1;0.6696947079981328;001;sutti;2019_May_10_1555;iat_vr;60.0502150712732;
4;GEBÄUDE;Gemacht;p;1;4;24;15;p;1;0.9380581340010394;001;sutti;2019_May_10_1555;iat_vr;60.0502150712732;
4;NEGATIV;negativ;q;1;5;25;2;q;1;0.555056233999494;001;sutti;2019_May_10_1555;iat_vr;60.0502150712732;
4;POSITIV;positiv;p;1;6;26;8;p;1;0.8221102130009967;001;sutti;2019_May_10_1555;iat_vr;60.0502150712732;
4;KLEIDER;Gemacht;p;1;7;27;17;p;1;1.0560959009999351;001;sutti;2019_May_10_1555;iat_vr;60.0502150712732;
4;EINWANDFREI;positiv;p;1;8;28;6;p;1;0.8374484880005184;001;sutti;2019_May_10_1555;iat_vr;60.0502150712732;
4;BLUME;Natur;q;1;9;29;12;q;1;0.5891810489993077;001;sutti;2019_May_10_1555;iat_vr;60.0502150712732;
4;SCHWACH;negativ;q;1;10;30;4;q;1;0.6223937699978705;001;sutti;2019_May_10_1555;iat_vr;60.0502150712732;
4;SCHLIMM;negativ;q;1;11;31;0;q;1;0.7391434840028523;001;sutti;2019_May_10_1555;iat_vr;60.0502150712732;
4;COMPUTER;Gemacht;p;1;12;32;18;p;1;0.622160229999281;001;sutti;2019_May_10_1555;iat_vr;60.0502150712732;
4;STADT;Gemacht;p;1;13;33;16;q;0;0.6226361879998876;001;sutti;2019_May_10_1555;iat_vr;60.0502150712732;
4;LAMPE;Gemacht;p;1;14;34;19;p;1;1.2724270809994778;001;sutti;2019_May_10_1555;iat_vr;60.0502150712732;
4;SCHÄDLICH;negativ;q;1;15;35;3;q;1;1.6723929100007808;001;sutti;2019_May_10_1555;iat_vr;60.0502150712732;
4;TIER;Natur;q;1;16;36;13;q;1;0.9398259600020538;001;sutti;2019_May_10_1555;iat_vr;60.0502150712732;
4;HERVORRAGEND;positiv;p;1;17;37;7;p;1;1.0375316200006637;001;sutti;2019_May_10_1555;iat_vr;60.0502150712732;
4;AUSGEZEICHNET;positiv;p;1;18;38;5;p;1;0.7039043260010658;001;sutti;2019_May_10_1555;iat_vr;60.0502150712732;
4;WASSER;Natur;q;1;19;39;11;q;1;0.8203577300009783;001;sutti;2019_May_10_1555;iat_vr;60.0502150712732;
;;;;;;;;;;;001;sutti;2019_May_10_1555;iat_vr;60.0502150712732;
5;STADT;Gemacht;q;0;0;0;6;q;1;0.7549572839998291;001;sutti;2019_May_10_1555;iat_vr;60.0502150712732;
5;STEIN;Natur;p;0;1;1;4;p;1;0.806000517000939;001;sutti;2019_May_10_1555;iat_vr;60.0502150712732;
5;LAMPE;Gemacht;q;0;2;2;9;q;1;1.1393701029992371;001;sutti;2019_May_10_1555;iat_vr;60.0502150712732;
5;TIER;Natur;p;0;3;3;3;p;1;0.940096006001113;001;sutti;2019_May_10_1555;iat_vr;60.0502150712732;
5;BLUME;Natur;p;0;4;4;2;p;1;0.7887346149982477;001;sutti;2019_May_10_1555;iat_vr;60.0502150712732;
5;KLEIDER;Gemacht;q;0;5;5;7;q;1;1.4058671500024502;001;sutti;2019_May_10_1555;iat_vr;60.0502150712732;
5;WASSER;Natur;p;0;6;6;1;p;1;0.8723541610015673;001;sutti;2019_May_10_1555;iat_vr;60.0502150712732;
5;BAUM;Natur;p;0;7;7;0;p;1;0.9232076249973034;001;sutti;2019_May_10_1555;iat_vr;60.0502150712732;
5;COMPUTER;Gemacht;q;0;8;8;8;q;1;0.8864471439992485;001;sutti;2019_May_10_1555;iat_vr;60.0502150712732;
5;GEBÄUDE;Gemacht;q;0;9;9;5;q;1;0.6222891700017499;001;sutti;2019_May_10_1555;iat_vr;60.0502150712732;
5;STADT;Gemacht;q;1;0;10;6;p;0;1.1052353209997818;001;sutti;2019_May_10_1555;iat_vr;60.0502150712732;
5;WASSER;Natur;p;1;1;11;1;p;1;1.4228074829989055;001;sutti;2019_May_10_1555;iat_vr;60.0502150712732;
5;TIER;Natur;p;1;2;12;3;p;1;0.639726810000866;001;sutti;2019_May_10_1555;iat_vr;60.0502150712732;
5;STEIN;Natur;p;1;3;13;4;p;1;0.622955908998847;001;sutti;2019_May_10_1555;iat_vr;60.0502150712732;
5;GEBÄUDE;Gemacht;q;1;4;14;5;q;1;0.6388503759990272;001;sutti;2019_May_10_1555;iat_vr;60.0502150712732;
5;BAUM;Natur;p;1;5;15;0;p;1;0.8058476310034166;001;sutti;2019_May_10_1555;iat_vr;60.0502150712732;
5;BLUME;Natur;p;1;6;16;2;p;1;1.1693673349982419;001;sutti;2019_May_10_1555;iat_vr;60.0502150712732;
5;LAMPE;Gemacht;q;1;7;17;9;q;1;0.9387882670016552;001;sutti;2019_May_10_1555;iat_vr;60.0502150712732;
5;KLEIDER;Gemacht;q;1;8;18;7;q;1;1.3382029919994238;001;sutti;2019_May_10_1555;iat_vr;60.0502150712732;
5;COMPUTER;Gemacht;q;1;9;19;8;q;1;0.6184726530009357;001;sutti;2019_May_10_1555;iat_vr;60.0502150712732;
;;;;;;;;;;;001;sutti;2019_May_10_1555;iat_vr;60.0502150712732;
6;TIER;Natur;p;0;0;0;3;p;1;0.9386716850021912;001;sutti;2019_May_10_1555;iat_vr;60.0502150712732;
6;NEGATIV;negativ;q;0;1;1;12;q;1;0.9384126739969361;001;sutti;2019_May_10_1555;iat_vr;60.0502150712732;
6;WASSER;Natur;p;0;2;2;1;p;1;1.2389614669991715;001;sutti;2019_May_10_1555;iat_vr;60.0502150712732;
6;BAUM;Natur;p;0;3;3;0;p;1;0.7233388269996794;001;sutti;2019_May_10_1555;iat_vr;60.0502150712732;
6;AUSGEZEICHNET;positiv;p;0;4;4;15;p;1;1.3880302529978508;001;sutti;2019_May_10_1555;iat_vr;60.0502150712732;
6;GEBÄUDE;Gemacht;q;0;5;5;5;q;1;1.0371721890005574;001;sutti;2019_May_10_1555;iat_vr;60.0502150712732;
6;COMPUTER;Gemacht;q;0;6;6;8;q;1;0.8221540600025037;001;sutti;2019_May_10_1555;iat_vr;60.0502150712732;
6;KLEIDER;Gemacht;q;0;7;7;7;q;1;0.6891253930007224;001;sutti;2019_May_10_1555;iat_vr;60.0502150712732;
6;SCHÄDLICH;negativ;q;0;8;8;13;q;1;1.5682470889987599;001;sutti;2019_May_10_1555;iat_vr;60.0502150712732;
6;STEIN;Natur;p;0;9;9;4;p;1;0.7558001180004794;001;sutti;2019_May_10_1555;iat_vr;60.0502150712732;
6;SCHWACH;negativ;q;0;10;10;14;q;1;1.1223816000019724;001;sutti;2019_May_10_1555;iat_vr;60.0502150712732;
6;BLUME;Natur;p;0;11;11;2;p;1;0.689592246999382;001;sutti;2019_May_10_1555;iat_vr;60.0502150712732;
6;STADT;Gemacht;q;0;12;12;6;q;1;0.7561370670009637;001;sutti;2019_May_10_1555;iat_vr;60.0502150712732;
6;HERVORRAGEND;positiv;p;0;13;13;17;p;1;0.8378260320023401;001;sutti;2019_May_10_1555;iat_vr;60.0502150712732;
6;SCHLIMM;negativ;q;0;14;14;10;q;1;0.821831586999906;001;sutti;2019_May_10_1555;iat_vr;60.0502150712732;
6;LAMPE;Gemacht;q;0;15;15;9;p;0;1.121649819000595;001;sutti;2019_May_10_1555;iat_vr;60.0502150712732;
6;POSITIV;positiv;p;0;16;16;18;q;0;0.955698409001343;001;sutti;2019_May_10_1555;iat_vr;60.0502150712732;
6;GUT;positiv;p;0;17;17;19;p;1;0.9871571080002468;001;sutti;2019_May_10_1555;iat_vr;60.0502150712732;
6;EINWANDFREI;positiv;p;0;18;18;16;p;1;1.0546451299996988;001;sutti;2019_May_10_1555;iat_vr;60.0502150712732;
6;SCHLECHT;negativ;q;0;19;19;11;q;1;0.8359290389998932;001;sutti;2019_May_10_1555;iat_vr;60.0502150712732;
;;;;;;;;;;;001;sutti;2019_May_10_1555;iat_vr;60.0502150712732;
7;STADT;Gemacht;q;0;0;0;6;q;1;1.2544700280013785;001;sutti;2019_May_10_1555;iat_vr;60.0502150712732;
7;STEIN;Natur;p;0;1;1;4;p;1;1.0729856050020317;001;sutti;2019_May_10_1555;iat_vr;60.0502150712732;
7;SCHWACH;negativ;q;0;2;2;14;q;1;1.1380833099974552;001;sutti;2019_May_10_1555;iat_vr;60.0502150712732;
7;SCHÄDLICH;negativ;q;0;3;3;13;q;1;0.8544209549982043;001;sutti;2019_May_10_1555;iat_vr;60.0502150712732;
7;BAUM;Natur;p;0;4;4;0;p;1;1.356756134002353;001;sutti;2019_May_10_1555;iat_vr;60.0502150712732;
7;POSITIV;positiv;p;0;5;5;18;p;1;1.0389165009983117;001;sutti;2019_May_10_1555;iat_vr;60.0502150712732;
7;SCHLIMM;negativ;q;0;6;6;10;q;1;1.03826981200109;001;sutti;2019_May_10_1555;iat_vr;60.0502150712732;
7;HERVORRAGEND;positiv;p;0;7;7;17;p;1;0.7535231080000813;001;sutti;2019_May_10_1555;iat_vr;60.0502150712732;
7;WASSER;Natur;p;0;8;8;1;p;1;1.772824829997262;001;sutti;2019_May_10_1555;iat_vr;60.0502150712732;
7;NEGATIV;negativ;q;0;9;9;12;q;1;0.9212880630002473;001;sutti;2019_May_10_1555;iat_vr;60.0502150712732;
7;AUSGEZEICHNET;positiv;p;0;10;10;15;p;1;0.9880076029985503;001;sutti;2019_May_10_1555;iat_vr;60.0502150712732;
7;EINWANDFREI;positiv;p;0;11;11;16;p;1;1.104994124998484;001;sutti;2019_May_10_1555;iat_vr;60.0502150712732;
7;BLUME;Natur;p;0;12;12;2;p;1;0.6894357469973329;001;sutti;2019_May_10_1555;iat_vr;60.0502150712732;
7;SCHLECHT;negativ;q;0;13;13;11;q;1;1.0685207260030438;001;sutti;2019_May_10_1555;iat_vr;60.0502150712732;
7;GUT;positiv;p;0;14;14;19;p;1;0.8542400730002555;001;sutti;2019_May_10_1555;iat_vr;60.0502150712732;
7;GEBÄUDE;Gemacht;q;0;15;15;5;q;1;1.6558895880007185;001;sutti;2019_May_10_1555;iat_vr;60.0502150712732;
7;COMPUTER;Gemacht;q;0;16;16;8;q;1;0.7720695860007254;001;sutti;2019_May_10_1555;iat_vr;60.0502150712732;
7;TIER;Natur;p;0;17;17;3;p;1;0.8228701730004104;001;sutti;2019_May_10_1555;iat_vr;60.0502150712732;
7;LAMPE;Gemacht;q;0;18;18;9;q;1;0.9720554150007956;001;sutti;2019_May_10_1555;iat_vr;60.0502150712732;
7;KLEIDER;Gemacht;q;0;19;19;7;q;1;1.0389428550006414;001;sutti;2019_May_10_1555;iat_vr;60.0502150712732;
7;STADT;Gemacht;q;1;0;20;6;q;1;1.4565407700029027;001;sutti;2019_May_10_1555;iat_vr;60.0502150712732;
7;SCHLECHT;negativ;q;1;1;21;11;q;1;1.1706164259994694;001;sutti;2019_May_10_1555;iat_vr;60.0502150712732;
7;AUSGEZEICHNET;positiv;p;1;2;22;15;p;1;1.2546726649998163;001;sutti;2019_May_10_1555;iat_vr;60.0502150712732;
7;NEGATIV;negativ;q;1;3;23;12;q;1;0.688064731999475;001;sutti;2019_May_10_1555;iat_vr;60.0502150712732;
7;POSITIV;positiv;p;1;4;24;18;p;1;0.655644784001197;001;sutti;2019_May_10_1555;iat_vr;60.0502150712732;
7;STEIN;Natur;p;1;5;25;4;p;1;1.6229546329996083;001;sutti;2019_May_10_1555;iat_vr;60.0502150712732;
7;COMPUTER;Gemacht;q;1;6;26;8;q;1;0.6543466990005982;001;sutti;2019_May_10_1555;iat_vr;60.0502150712732;
7;TIER;Natur;p;1;7;27;3;p;1;1.5559689869987778;001;sutti;2019_May_10_1555;iat_vr;60.0502150712732;
7;SCHLIMM;negativ;q;1;8;28;10;q;1;0.7053113500005566;001;sutti;2019_May_10_1555;iat_vr;60.0502150712732;
7;SCHWACH;negativ;q;1;9;29;14;q;1;0.8056422970003041;001;sutti;2019_May_10_1555;iat_vr;60.0502150712732;
7;EINWANDFREI;positiv;p;1;10;30;16;p;1;0.7547882959988783;001;sutti;2019_May_10_1555;iat_vr;60.0502150712732;
7;LAMPE;Gemacht;q;1;11;31;9;q;1;0.8388729519974731;001;sutti;2019_May_10_1555;iat_vr;60.0502150712732;
7;KLEIDER;Gemacht;q;1;12;32;7;q;1;0.7532767640004749;001;sutti;2019_May_10_1555;iat_vr;60.0502150712732;
7;HERVORRAGEND;positiv;p;1;13;33;17;p;1;1.955046859999129;001;sutti;2019_May_10_1555;iat_vr;60.0502150712732;
7;GEBÄUDE;Gemacht;q;1;14;34;5;q;1;0.6556266260013217;001;sutti;2019_May_10_1555;iat_vr;60.0502150712732;
7;WASSER;Natur;p;1;15;35;1;p;1;0.9887074979997124;001;sutti;2019_May_10_1555;iat_vr;60.0502150712732;
7;BAUM;Natur;p;1;16;36;0;p;1;0.606483625000692;001;sutti;2019_May_10_1555;iat_vr;60.0502150712732;
7;BLUME;Natur;p;1;17;37;2;p;1;0.5523776310001267;001;sutti;2019_May_10_1555;iat_vr;60.0502150712732;
7;GUT;positiv;p;1;18;38;19;p;1;0.92274127699784;001;sutti;2019_May_10_1555;iat_vr;60.0502150712732;
7;SCHÄDLICH;negativ;q;1;19;39;13;q;1;0.7050503239988757;001;sutti;2019_May_10_1555;iat_vr;60.0502150712732;
;;;;;;;;;;;001;sutti;2019_May_10_1555;iat_vr;60.0502150712732;
