Block;Word;Category;CorrResp;trials.thisRepN;trials.thisTrialN;trials.thisN;trials.thisIndex;key_resp_2.keys;key_resp_2.corr;key_resp_2.rt;session;participant;date;expName;frameRate;
1;WASSER;Natur;q;0;0;0;1;q;1;1.2236139059968991;001;13101928;2019_Jun_19_1449;iat_vr;59.96115512458758;
1;COMPUTER;Gemacht;p;0;1;1;8;p;1;0.7874893809930654;001;13101928;2019_Jun_19_1449;iat_vr;59.96115512458758;
1;STADT;Gemacht;p;0;2;2;6;p;1;0.9039556670031743;001;13101928;2019_Jun_19_1449;iat_vr;59.96115512458758;
1;GEBÄUDE;Gemacht;p;0;3;3;5;p;1;0.9842215459939325;001;13101928;2019_Jun_19_1449;iat_vr;59.96115512458758;
1;KLEIDER;Gemacht;p;0;4;4;7;p;1;0.7705860319983913;001;13101928;2019_Jun_19_1449;iat_vr;59.96115512458758;
1;TIER;Natur;q;0;5;5;3;q;1;0.6858081829996081;001;13101928;2019_Jun_19_1449;iat_vr;59.96115512458758;
1;LAMPE;Gemacht;p;0;6;6;9;p;1;0.8561045209935401;001;13101928;2019_Jun_19_1449;iat_vr;59.96115512458758;
1;BAUM;Natur;q;0;7;7;0;q;1;0.7875871719879797;001;13101928;2019_Jun_19_1449;iat_vr;59.96115512458758;
1;STEIN;Natur;q;0;8;8;4;q;1;1.63831952700275;001;13101928;2019_Jun_19_1449;iat_vr;59.96115512458758;
1;BLUME;Natur;q;0;9;9;2;q;1;1.3397419770044507;001;13101928;2019_Jun_19_1449;iat_vr;59.96115512458758;
1;COMPUTER;Gemacht;p;1;0;10;8;p;1;0.5721830200054683;001;13101928;2019_Jun_19_1449;iat_vr;59.96115512458758;
1;TIER;Natur;q;1;1;11;3;q;1;0.7560673879925162;001;13101928;2019_Jun_19_1449;iat_vr;59.96115512458758;
1;STEIN;Natur;q;1;2;12;4;q;1;2.040065445995424;001;13101928;2019_Jun_19_1449;iat_vr;59.96115512458758;
1;WASSER;Natur;q;1;3;13;1;q;1;0.6057665679982165;001;13101928;2019_Jun_19_1449;iat_vr;59.96115512458758;
1;BAUM;Natur;q;1;4;14;0;q;1;0.6229606600099942;001;13101928;2019_Jun_19_1449;iat_vr;59.96115512458758;
1;GEBÄUDE;Gemacht;p;1;5;15;5;p;1;2.705612691002898;001;13101928;2019_Jun_19_1449;iat_vr;59.96115512458758;
1;LAMPE;Gemacht;p;1;6;16;9;p;1;1.0061732489994029;001;13101928;2019_Jun_19_1449;iat_vr;59.96115512458758;
1;KLEIDER;Gemacht;p;1;7;17;7;p;1;1.8729525880044093;001;13101928;2019_Jun_19_1449;iat_vr;59.96115512458758;
1;STADT;Gemacht;p;1;8;18;6;p;1;0.6061312100064242;001;13101928;2019_Jun_19_1449;iat_vr;59.96115512458758;
1;BLUME;Natur;q;1;9;19;2;q;1;0.7395057249959791;001;13101928;2019_Jun_19_1449;iat_vr;59.96115512458758;
;;;;;;;;;;;001;13101928;2019_Jun_19_1449;iat_vr;59.96115512458758;
2;AUSGEZEICHNET;positiv;p;0;0;0;5;p;1;0.8879918320017168;001;13101928;2019_Jun_19_1449;iat_vr;59.96115512458758;
2;NEGATIV;negativ;q;0;1;1;2;q;1;0.6706001140119042;001;13101928;2019_Jun_19_1449;iat_vr;59.96115512458758;
2;SCHÄDLICH;negativ;q;0;2;2;3;q;1;0.8707080799940741;001;13101928;2019_Jun_19_1449;iat_vr;59.96115512458758;
2;SCHWACH;negativ;q;0;3;3;4;q;1;0.6381999799923506;001;13101928;2019_Jun_19_1449;iat_vr;59.96115512458758;
2;EINWANDFREI;positiv;p;0;4;4;6;p;1;1.0170754610007862;001;13101928;2019_Jun_19_1449;iat_vr;59.96115512458758;
2;POSITIV;positiv;p;0;5;5;8;p;1;0.7224261210067198;001;13101928;2019_Jun_19_1449;iat_vr;59.96115512458758;
2;SCHLECHT;negativ;q;0;6;6;1;q;1;0.7391819999902509;001;13101928;2019_Jun_19_1449;iat_vr;59.96115512458758;
2;SCHLIMM;negativ;q;0;7;7;0;q;1;0.8054780609963927;001;13101928;2019_Jun_19_1449;iat_vr;59.96115512458758;
2;GUT;positiv;p;0;8;8;9;p;1;0.7557402819948038;001;13101928;2019_Jun_19_1449;iat_vr;59.96115512458758;
2;HERVORRAGEND;positiv;p;0;9;9;7;p;1;1.6551318669953616;001;13101928;2019_Jun_19_1449;iat_vr;59.96115512458758;
2;POSITIV;positiv;p;1;0;10;8;p;1;0.6724580050067743;001;13101928;2019_Jun_19_1449;iat_vr;59.96115512458758;
2;EINWANDFREI;positiv;p;1;1;11;6;p;1;1.0884557050012518;001;13101928;2019_Jun_19_1449;iat_vr;59.96115512458758;
2;NEGATIV;negativ;q;1;2;12;2;q;1;0.7389226729865186;001;13101928;2019_Jun_19_1449;iat_vr;59.96115512458758;
2;GUT;positiv;p;1;3;13;9;p;1;1.5903386349964421;001;13101928;2019_Jun_19_1449;iat_vr;59.96115512458758;
2;SCHWACH;negativ;q;1;4;14;4;q;1;0.519010790012544;001;13101928;2019_Jun_19_1449;iat_vr;59.96115512458758;
2;SCHLIMM;negativ;q;1;5;15;0;q;1;0.6545203360001324;001;13101928;2019_Jun_19_1449;iat_vr;59.96115512458758;
2;AUSGEZEICHNET;positiv;p;1;6;16;5;q;0;0.5378939380025258;001;13101928;2019_Jun_19_1449;iat_vr;59.96115512458758;
2;SCHÄDLICH;negativ;q;1;7;17;3;q;1;1.7885194469999988;001;13101928;2019_Jun_19_1449;iat_vr;59.96115512458758;
2;HERVORRAGEND;positiv;p;1;8;18;7;p;1;0.6370053519931389;001;13101928;2019_Jun_19_1449;iat_vr;59.96115512458758;
2;SCHLECHT;negativ;q;1;9;19;1;q;1;1.2217552220099606;001;13101928;2019_Jun_19_1449;iat_vr;59.96115512458758;
;;;;;;;;;;;001;13101928;2019_Jun_19_1449;iat_vr;59.96115512458758;
3;POSITIV;positiv;p;0;0;0;8;p;1;0.9382530709990533;001;13101928;2019_Jun_19_1449;iat_vr;59.96115512458758;
3;STADT;Gemacht;p;0;1;1;16;p;1;0.7061799399962183;001;13101928;2019_Jun_19_1449;iat_vr;59.96115512458758;
3;KLEIDER;Gemacht;p;0;2;2;17;p;1;1.4191543770139106;001;13101928;2019_Jun_19_1449;iat_vr;59.96115512458758;
3;WASSER;Natur;q;0;3;3;11;q;1;0.8560745240101824;001;13101928;2019_Jun_19_1449;iat_vr;59.96115512458758;
3;SCHÄDLICH;negativ;q;0;4;4;3;q;1;0.6379258030065103;001;13101928;2019_Jun_19_1449;iat_vr;59.96115512458758;
3;SCHLECHT;negativ;q;0;5;5;1;q;1;0.5389610709971748;001;13101928;2019_Jun_19_1449;iat_vr;59.96115512458758;
3;TIER;Natur;q;0;6;6;13;q;1;1.4234537429874763;001;13101928;2019_Jun_19_1449;iat_vr;59.96115512458758;
3;COMPUTER;Gemacht;p;0;7;7;18;p;1;0.7722496380010853;001;13101928;2019_Jun_19_1449;iat_vr;59.96115512458758;
3;GEBÄUDE;Gemacht;p;0;8;8;15;p;1;1.3224664209992625;001;13101928;2019_Jun_19_1449;iat_vr;59.96115512458758;
3;STEIN;Natur;q;0;9;9;14;q;1;0.5728378540079575;001;13101928;2019_Jun_19_1449;iat_vr;59.96115512458758;
3;NEGATIV;negativ;q;0;10;10;2;q;1;0.8725671419961145;001;13101928;2019_Jun_19_1449;iat_vr;59.96115512458758;
3;EINWANDFREI;positiv;p;0;11;11;6;q;0;0.6045735040097497;001;13101928;2019_Jun_19_1449;iat_vr;59.96115512458758;
3;SCHLIMM;negativ;q;0;12;12;0;q;1;1.1055637850076891;001;13101928;2019_Jun_19_1449;iat_vr;59.96115512458758;
3;LAMPE;Gemacht;p;0;13;13;19;p;1;0.5894906580069801;001;13101928;2019_Jun_19_1449;iat_vr;59.96115512458758;
3;GUT;positiv;p;0;14;14;9;p;1;0.7708253750024596;001;13101928;2019_Jun_19_1449;iat_vr;59.96115512458758;
3;BAUM;Natur;q;0;15;15;10;p;0;0.5034939129982376;001;13101928;2019_Jun_19_1449;iat_vr;59.96115512458758;
3;HERVORRAGEND;positiv;p;0;16;16;7;p;1;1.1048323010036256;001;13101928;2019_Jun_19_1449;iat_vr;59.96115512458758;
3;BLUME;Natur;q;0;17;17;12;q;1;0.8561839559988584;001;13101928;2019_Jun_19_1449;iat_vr;59.96115512458758;
3;SCHWACH;negativ;q;0;18;18;4;q;1;1.402238793001743;001;13101928;2019_Jun_19_1449;iat_vr;59.96115512458758;
3;AUSGEZEICHNET;positiv;p;0;19;19;5;p;1;1.188187799998559;001;13101928;2019_Jun_19_1449;iat_vr;59.96115512458758;
;;;;;;;;;;;001;13101928;2019_Jun_19_1449;iat_vr;59.96115512458758;
4;BAUM;Natur;q;0;0;0;10;q;1;0.7713008530117804;001;13101928;2019_Jun_19_1449;iat_vr;59.96115512458758;
4;SCHÄDLICH;negativ;q;0;1;1;3;q;1;1.1379135369934374;001;13101928;2019_Jun_19_1449;iat_vr;59.96115512458758;
4;POSITIV;positiv;p;0;2;2;8;p;1;0.6055292210076004;001;13101928;2019_Jun_19_1449;iat_vr;59.96115512458758;
4;SCHWACH;negativ;q;0;3;3;4;q;1;0.8723117080080556;001;13101928;2019_Jun_19_1449;iat_vr;59.96115512458758;
4;STEIN;Natur;q;0;4;4;14;q;1;1.2226821429940173;001;13101928;2019_Jun_19_1449;iat_vr;59.96115512458758;
4;GUT;positiv;p;0;5;5;9;p;1;0.7545904610014986;001;13101928;2019_Jun_19_1449;iat_vr;59.96115512458758;
4;BLUME;Natur;q;0;6;6;12;q;1;0.8061539119953522;001;13101928;2019_Jun_19_1449;iat_vr;59.96115512458758;
4;COMPUTER;Gemacht;p;0;7;7;18;p;1;0.6057493239932228;001;13101928;2019_Jun_19_1449;iat_vr;59.96115512458758;
4;EINWANDFREI;positiv;p;0;8;8;6;p;1;0.9714558069972554;001;13101928;2019_Jun_19_1449;iat_vr;59.96115512458758;
4;GEBÄUDE;Gemacht;p;0;9;9;15;p;1;1.1061580359964864;001;13101928;2019_Jun_19_1449;iat_vr;59.96115512458758;
4;SCHLIMM;negativ;q;0;10;10;0;q;1;0.5047785460046725;001;13101928;2019_Jun_19_1449;iat_vr;59.96115512458758;
4;AUSGEZEICHNET;positiv;p;0;11;11;5;p;1;0.6535602049989393;001;13101928;2019_Jun_19_1449;iat_vr;59.96115512458758;
4;KLEIDER;Gemacht;p;0;12;12;17;p;1;1.440158616998815;001;13101928;2019_Jun_19_1449;iat_vr;59.96115512458758;
4;TIER;Natur;q;0;13;13;13;q;1;0.43942318999324925;001;13101928;2019_Jun_19_1449;iat_vr;59.96115512458758;
4;STADT;Gemacht;p;0;14;14;16;p;1;0.522977542001172;001;13101928;2019_Jun_19_1449;iat_vr;59.96115512458758;
4;NEGATIV;negativ;q;0;15;15;2;q;1;0.8047830260038609;001;13101928;2019_Jun_19_1449;iat_vr;59.96115512458758;
4;LAMPE;Gemacht;p;0;16;16;19;p;1;1.723273857991444;001;13101928;2019_Jun_19_1449;iat_vr;59.96115512458758;
4;WASSER;Natur;q;0;17;17;11;q;1;0.6557694990042364;001;13101928;2019_Jun_19_1449;iat_vr;59.96115512458758;
4;SCHLECHT;negativ;q;0;18;18;1;q;1;1.188730113004567;001;13101928;2019_Jun_19_1449;iat_vr;59.96115512458758;
4;HERVORRAGEND;positiv;p;0;19;19;7;p;1;0.6207917790015927;001;13101928;2019_Jun_19_1449;iat_vr;59.96115512458758;
4;AUSGEZEICHNET;positiv;p;1;0;20;5;p;1;1.384870604990283;001;13101928;2019_Jun_19_1449;iat_vr;59.96115512458758;
4;NEGATIV;negativ;q;1;1;21;2;q;1;1.555501341004856;001;13101928;2019_Jun_19_1449;iat_vr;59.96115512458758;
4;COMPUTER;Gemacht;p;1;2;22;18;p;1;0.5209019760077354;001;13101928;2019_Jun_19_1449;iat_vr;59.96115512458758;
4;TIER;Natur;q;1;3;23;13;q;1;0.639695631005452;001;13101928;2019_Jun_19_1449;iat_vr;59.96115512458758;
4;SCHLECHT;negativ;q;1;4;24;1;q;1;0.6379466529906495;001;13101928;2019_Jun_19_1449;iat_vr;59.96115512458758;
4;LAMPE;Gemacht;p;1;5;25;19;p;1;0.5049975550064119;001;13101928;2019_Jun_19_1449;iat_vr;59.96115512458758;
4;GEBÄUDE;Gemacht;p;1;6;26;15;p;1;0.6056814879993908;001;13101928;2019_Jun_19_1449;iat_vr;59.96115512458758;
4;BAUM;Natur;q;1;7;27;10;q;1;0.654400874991552;001;13101928;2019_Jun_19_1449;iat_vr;59.96115512458758;
4;KLEIDER;Gemacht;p;1;8;28;17;p;1;0.688117155994405;001;13101928;2019_Jun_19_1449;iat_vr;59.96115512458758;
4;BLUME;Natur;q;1;9;29;12;q;1;0.7226235139969504;001;13101928;2019_Jun_19_1449;iat_vr;59.96115512458758;
4;STADT;Gemacht;p;1;10;30;16;p;1;0.5727237639948726;001;13101928;2019_Jun_19_1449;iat_vr;59.96115512458758;
4;STEIN;Natur;q;1;11;31;14;q;1;0.7393002679891651;001;13101928;2019_Jun_19_1449;iat_vr;59.96115512458758;
4;WASSER;Natur;q;1;12;32;11;q;1;0.6523327559989411;001;13101928;2019_Jun_19_1449;iat_vr;59.96115512458758;
4;EINWANDFREI;positiv;p;1;13;33;6;p;1;0.605166797991842;001;13101928;2019_Jun_19_1449;iat_vr;59.96115512458758;
4;SCHÄDLICH;negativ;q;1;14;34;3;q;1;0.5387973239994608;001;13101928;2019_Jun_19_1449;iat_vr;59.96115512458758;
4;HERVORRAGEND;positiv;p;1;15;35;7;p;1;0.5870808409963502;001;13101928;2019_Jun_19_1449;iat_vr;59.96115512458758;
4;POSITIV;positiv;p;1;16;36;8;p;1;0.6884805989975575;001;13101928;2019_Jun_19_1449;iat_vr;59.96115512458758;
4;SCHLIMM;negativ;q;1;17;37;0;q;1;6.073595278998255;001;13101928;2019_Jun_19_1449;iat_vr;59.96115512458758;
4;GUT;positiv;p;1;18;38;9;p;1;1.2037459359999048;001;13101928;2019_Jun_19_1449;iat_vr;59.96115512458758;
4;SCHWACH;negativ;q;1;19;39;4;q;1;0.48906437000550795;001;13101928;2019_Jun_19_1449;iat_vr;59.96115512458758;
;;;;;;;;;;;001;13101928;2019_Jun_19_1449;iat_vr;59.96115512458758;
5;LAMPE;Gemacht;q;0;0;0;9;q;1;1.2715033860004041;001;13101928;2019_Jun_19_1449;iat_vr;59.96115512458758;
5;COMPUTER;Gemacht;q;0;1;1;8;q;1;0.5519610149931395;001;13101928;2019_Jun_19_1449;iat_vr;59.96115512458758;
5;GEBÄUDE;Gemacht;q;0;2;2;5;q;1;0.5723627129918896;001;13101928;2019_Jun_19_1449;iat_vr;59.96115512458758;
5;KLEIDER;Gemacht;q;0;3;3;7;p;0;0.8887870409962488;001;13101928;2019_Jun_19_1449;iat_vr;59.96115512458758;
5;WASSER;Natur;p;0;4;4;1;q;0;0.27272377800545655;001;13101928;2019_Jun_19_1449;iat_vr;59.96115512458758;
5;BLUME;Natur;p;0;5;5;2;p;1;1.1718342439999105;001;13101928;2019_Jun_19_1449;iat_vr;59.96115512458758;
5;STADT;Gemacht;q;0;6;6;6;q;1;0.7375546090042917;001;13101928;2019_Jun_19_1449;iat_vr;59.96115512458758;
5;BAUM;Natur;p;0;7;7;0;p;1;1.8048519480071263;001;13101928;2019_Jun_19_1449;iat_vr;59.96115512458758;
5;STEIN;Natur;p;0;8;8;4;p;1;0.5862830209953245;001;13101928;2019_Jun_19_1449;iat_vr;59.96115512458758;
5;TIER;Natur;p;0;9;9;3;p;1;2.2708276390039828;001;13101928;2019_Jun_19_1449;iat_vr;59.96115512458758;
5;TIER;Natur;p;1;0;10;3;p;1;0.5005904420104343;001;13101928;2019_Jun_19_1449;iat_vr;59.96115512458758;
5;STADT;Gemacht;q;1;1;11;6;q;1;0.6059990350040607;001;13101928;2019_Jun_19_1449;iat_vr;59.96115512458758;
5;GEBÄUDE;Gemacht;q;1;2;12;5;q;1;0.4724429599882569;001;13101928;2019_Jun_19_1449;iat_vr;59.96115512458758;
5;BAUM;Natur;p;1;3;13;0;p;1;0.5886174909974216;001;13101928;2019_Jun_19_1449;iat_vr;59.96115512458758;
5;COMPUTER;Gemacht;q;1;4;14;8;q;1;1.7558070090017281;001;13101928;2019_Jun_19_1449;iat_vr;59.96115512458758;
5;KLEIDER;Gemacht;q;1;5;15;7;q;1;0.7223590740031796;001;13101928;2019_Jun_19_1449;iat_vr;59.96115512458758;
5;LAMPE;Gemacht;q;1;6;16;9;q;1;0.5555544560047565;001;13101928;2019_Jun_19_1449;iat_vr;59.96115512458758;
5;STEIN;Natur;p;1;7;17;4;p;1;1.7029693920048885;001;13101928;2019_Jun_19_1449;iat_vr;59.96115512458758;
5;BLUME;Natur;p;1;8;18;2;p;1;0.6857708059978904;001;13101928;2019_Jun_19_1449;iat_vr;59.96115512458758;
5;WASSER;Natur;p;1;9;19;1;p;1;1.5896438889903948;001;13101928;2019_Jun_19_1449;iat_vr;59.96115512458758;
;;;;;;;;;;;001;13101928;2019_Jun_19_1449;iat_vr;59.96115512458758;
6;GEBÄUDE;Gemacht;q;0;0;0;5;q;1;1.3214876870042644;001;13101928;2019_Jun_19_1449;iat_vr;59.96115512458758;
6;KLEIDER;Gemacht;q;0;1;1;7;q;1;0.5882495539990487;001;13101928;2019_Jun_19_1449;iat_vr;59.96115512458758;
6;BLUME;Natur;p;0;2;2;2;q;0;0.5395019499992486;001;13101928;2019_Jun_19_1449;iat_vr;59.96115512458758;
6;POSITIV;positiv;p;0;3;3;18;p;1;1.4882620919961482;001;13101928;2019_Jun_19_1449;iat_vr;59.96115512458758;
6;BAUM;Natur;p;0;4;4;0;p;1;2.53838311698928;001;13101928;2019_Jun_19_1449;iat_vr;59.96115512458758;
6;AUSGEZEICHNET;positiv;p;0;5;5;15;q;0;1.2378654500062112;001;13101928;2019_Jun_19_1449;iat_vr;59.96115512458758;
6;SCHLIMM;negativ;q;0;6;6;10;q;1;2.123155619992758;001;13101928;2019_Jun_19_1449;iat_vr;59.96115512458758;
6;GUT;positiv;p;0;7;7;19;p;1;0.7711645450035576;001;13101928;2019_Jun_19_1449;iat_vr;59.96115512458758;
6;WASSER;Natur;p;0;8;8;1;p;1;0.8056605549936648;001;13101928;2019_Jun_19_1449;iat_vr;59.96115512458758;
6;SCHWACH;negativ;q;0;9;9;14;q;1;1.4225495579885319;001;13101928;2019_Jun_19_1449;iat_vr;59.96115512458758;
6;EINWANDFREI;positiv;p;0;10;10;16;p;1;0.8879693729977589;001;13101928;2019_Jun_19_1449;iat_vr;59.96115512458758;
6;HERVORRAGEND;positiv;p;0;11;11;17;p;1;0.7049701450014254;001;13101928;2019_Jun_19_1449;iat_vr;59.96115512458758;
6;NEGATIV;negativ;q;0;12;12;12;q;1;0.7209918059961637;001;13101928;2019_Jun_19_1449;iat_vr;59.96115512458758;
6;SCHÄDLICH;negativ;q;0;13;13;13;p;0;0.6887016469991067;001;13101928;2019_Jun_19_1449;iat_vr;59.96115512458758;
6;LAMPE;Gemacht;q;0;14;14;9;q;1;0.9399726109986659;001;13101928;2019_Jun_19_1449;iat_vr;59.96115512458758;
6;COMPUTER;Gemacht;q;0;15;15;8;q;1;0.5554784150008345;001;13101928;2019_Jun_19_1449;iat_vr;59.96115512458758;
6;STEIN;Natur;p;0;16;16;4;p;1;0.7726603390037781;001;13101928;2019_Jun_19_1449;iat_vr;59.96115512458758;
6;STADT;Gemacht;q;0;17;17;6;q;1;0.6896355940116337;001;13101928;2019_Jun_19_1449;iat_vr;59.96115512458758;
6;SCHLECHT;negativ;q;0;18;18;11;q;1;0.7556071800063364;001;13101928;2019_Jun_19_1449;iat_vr;59.96115512458758;
6;TIER;Natur;p;0;19;19;3;p;1;0.7564019949932117;001;13101928;2019_Jun_19_1449;iat_vr;59.96115512458758;
;;;;;;;;;;;001;13101928;2019_Jun_19_1449;iat_vr;59.96115512458758;
7;GUT;positiv;p;0;0;0;19;p;1;1.071128014009446;001;13101928;2019_Jun_19_1449;iat_vr;59.96115512458758;
7;WASSER;Natur;p;0;1;1;1;p;1;0.9557058760110522;001;13101928;2019_Jun_19_1449;iat_vr;59.96115512458758;
7;BLUME;Natur;p;0;2;2;2;p;1;0.8564727519988082;001;13101928;2019_Jun_19_1449;iat_vr;59.96115512458758;
7;SCHLIMM;negativ;q;0;3;3;10;q;1;0.9389858250069665;001;13101928;2019_Jun_19_1449;iat_vr;59.96115512458758;
7;GEBÄUDE;Gemacht;q;0;4;4;5;q;1;2.186121026999899;001;13101928;2019_Jun_19_1449;iat_vr;59.96115512458758;
7;STADT;Gemacht;q;0;5;5;6;q;1;0.6558298440068029;001;13101928;2019_Jun_19_1449;iat_vr;59.96115512458758;
7;POSITIV;positiv;p;0;6;6;18;p;1;1.2551771170110442;001;13101928;2019_Jun_19_1449;iat_vr;59.96115512458758;
7;KLEIDER;Gemacht;q;0;7;7;7;q;1;0.7371599809994223;001;13101928;2019_Jun_19_1449;iat_vr;59.96115512458758;
7;BAUM;Natur;p;0;8;8;0;p;1;0.8065082480025012;001;13101928;2019_Jun_19_1449;iat_vr;59.96115512458758;
7;TIER;Natur;p;0;9;9;3;p;1;0.4890526270028204;001;13101928;2019_Jun_19_1449;iat_vr;59.96115512458758;
7;SCHÄDLICH;negativ;q;0;10;10;13;q;1;0.5348642919998383;001;13101928;2019_Jun_19_1449;iat_vr;59.96115512458758;
7;NEGATIV;negativ;q;0;11;11;12;q;1;4.406562313990435;001;13101928;2019_Jun_19_1449;iat_vr;59.96115512458758;
7;COMPUTER;Gemacht;q;0;12;12;8;q;1;1.9227699259936344;001;13101928;2019_Jun_19_1449;iat_vr;59.96115512458758;
7;LAMPE;Gemacht;q;0;13;13;9;q;1;0.5227187999989837;001;13101928;2019_Jun_19_1449;iat_vr;59.96115512458758;
7;AUSGEZEICHNET;positiv;p;0;14;14;15;p;1;0.6209808599960525;001;13101928;2019_Jun_19_1449;iat_vr;59.96115512458758;
7;SCHLECHT;negativ;q;0;15;15;11;q;1;0.940185768995434;001;13101928;2019_Jun_19_1449;iat_vr;59.96115512458758;
7;SCHWACH;negativ;q;0;16;16;14;q;1;0.6376970230048755;001;13101928;2019_Jun_19_1449;iat_vr;59.96115512458758;
7;EINWANDFREI;positiv;p;0;17;17;16;p;1;1.418298443997628;001;13101928;2019_Jun_19_1449;iat_vr;59.96115512458758;
7;HERVORRAGEND;positiv;p;0;18;18;17;p;1;0.48786812799517065;001;13101928;2019_Jun_19_1449;iat_vr;59.96115512458758;
7;STEIN;Natur;p;0;19;19;4;q;0;1.1221633780078264;001;13101928;2019_Jun_19_1449;iat_vr;59.96115512458758;
7;KLEIDER;Gemacht;q;1;0;20;7;q;1;0.7384964119992219;001;13101928;2019_Jun_19_1449;iat_vr;59.96115512458758;
7;SCHWACH;negativ;q;1;1;21;14;q;1;0.8725713150051888;001;13101928;2019_Jun_19_1449;iat_vr;59.96115512458758;
7;POSITIV;positiv;p;1;2;22;18;p;1;0.5223745529947337;001;13101928;2019_Jun_19_1449;iat_vr;59.96115512458758;
7;EINWANDFREI;positiv;p;1;3;23;16;p;1;0.5844440599903464;001;13101928;2019_Jun_19_1449;iat_vr;59.96115512458758;
7;STADT;Gemacht;q;1;4;24;6;q;1;0.5388343570084544;001;13101928;2019_Jun_19_1449;iat_vr;59.96115512458758;
7;SCHLECHT;negativ;q;1;5;25;11;q;1;1.6219107580109267;001;13101928;2019_Jun_19_1449;iat_vr;59.96115512458758;
7;WASSER;Natur;p;1;6;26;1;p;1;0.7019116420124192;001;13101928;2019_Jun_19_1449;iat_vr;59.96115512458758;
7;COMPUTER;Gemacht;q;1;7;27;8;q;1;0.80553497299843;001;13101928;2019_Jun_19_1449;iat_vr;59.96115512458758;
7;SCHLIMM;negativ;q;1;8;28;10;q;1;1.3060879549884703;001;13101928;2019_Jun_19_1449;iat_vr;59.96115512458758;
7;STEIN;Natur;p;1;9;29;4;p;1;1.0718225340096978;001;13101928;2019_Jun_19_1449;iat_vr;59.96115512458758;
7;GUT;positiv;p;1;10;30;19;p;1;0.47095147099753376;001;13101928;2019_Jun_19_1449;iat_vr;59.96115512458758;
7;AUSGEZEICHNET;positiv;p;1;11;31;15;p;1;0.6211039350018837;001;13101928;2019_Jun_19_1449;iat_vr;59.96115512458758;
7;TIER;Natur;p;1;12;32;3;p;1;0.7233319740043953;001;13101928;2019_Jun_19_1449;iat_vr;59.96115512458758;
7;LAMPE;Gemacht;q;1;13;33;9;q;1;0.5721614330104785;001;13101928;2019_Jun_19_1449;iat_vr;59.96115512458758;
7;SCHÄDLICH;negativ;q;1;14;34;13;q;1;1.672314262992586;001;13101928;2019_Jun_19_1449;iat_vr;59.96115512458758;
7;GEBÄUDE;Gemacht;q;1;15;35;5;p;0;0.5889630739984568;001;13101928;2019_Jun_19_1449;iat_vr;59.96115512458758;
7;BAUM;Natur;p;1;16;36;0;q;0;1.5234793300041929;001;13101928;2019_Jun_19_1449;iat_vr;59.96115512458758;
7;NEGATIV;negativ;q;1;17;37;12;q;1;2.206100602998049;001;13101928;2019_Jun_19_1449;iat_vr;59.96115512458758;
7;HERVORRAGEND;positiv;p;1;18;38;17;p;1;0.5207676010031719;001;13101928;2019_Jun_19_1449;iat_vr;59.96115512458758;
7;BLUME;Natur;p;1;19;39;2;p;1;1.1896582870103884;001;13101928;2019_Jun_19_1449;iat_vr;59.96115512458758;
;;;;;;;;;;;001;13101928;2019_Jun_19_1449;iat_vr;59.96115512458758;
