Block;Word;Category;CorrResp;trials.thisRepN;trials.thisTrialN;trials.thisN;trials.thisIndex;key_resp_2.keys;key_resp_2.corr;key_resp_2.rt;session;participant;date;expName;frameRate;
1;GEBÄUDE;Gemacht;p;0;0;0;5;p;1;1.288060208025854;001;13719067;2019_Jul_19_0935;iat_vr;59.76866217732733;
1;COMPUTER;Gemacht;p;0;1;1;8;p;1;0.6383734529954381;001;13719067;2019_Jul_19_0935;iat_vr;59.76866217732733;
1;KLEIDER;Gemacht;p;0;2;2;7;q;0;0.6510276409680955;001;13719067;2019_Jul_19_0935;iat_vr;59.76866217732733;
1;STEIN;Natur;q;0;3;3;4;q;1;0.7877862330060452;001;13719067;2019_Jul_19_0935;iat_vr;59.76866217732733;
1;TIER;Natur;q;0;4;4;3;q;1;0.5710620409809053;001;13719067;2019_Jul_19_0935;iat_vr;59.76866217732733;
1;LAMPE;Gemacht;p;0;5;5;9;p;1;0.7060952600440942;001;13719067;2019_Jul_19_0935;iat_vr;59.76866217732733;
1;BLUME;Natur;q;0;6;6;2;q;1;0.688877580978442;001;13719067;2019_Jul_19_0935;iat_vr;59.76866217732733;
1;STADT;Gemacht;p;0;7;7;6;p;1;0.7387986180256121;001;13719067;2019_Jul_19_0935;iat_vr;59.76866217732733;
1;BAUM;Natur;q;0;8;8;0;q;1;0.5362363750464283;001;13719067;2019_Jul_19_0935;iat_vr;59.76866217732733;
1;WASSER;Natur;q;0;9;9;1;q;1;0.6714418570045382;001;13719067;2019_Jul_19_0935;iat_vr;59.76866217732733;
1;STADT;Gemacht;p;1;0;10;6;p;1;0.6682143129874021;001;13719067;2019_Jul_19_0935;iat_vr;59.76866217732733;
1;LAMPE;Gemacht;p;1;1;11;9;q;0;0.5227633940521628;001;13719067;2019_Jul_19_0935;iat_vr;59.76866217732733;
1;BLUME;Natur;q;1;2;12;2;q;1;0.9729745999793522;001;13719067;2019_Jul_19_0935;iat_vr;59.76866217732733;
1;COMPUTER;Gemacht;p;1;3;13;8;p;1;0.5544850879814476;001;13719067;2019_Jul_19_0935;iat_vr;59.76866217732733;
1;GEBÄUDE;Gemacht;p;1;4;14;5;p;1;0.6052229749620892;001;13719067;2019_Jul_19_0935;iat_vr;59.76866217732733;
1;KLEIDER;Gemacht;p;1;5;15;7;p;1;0.7057117620133795;001;13719067;2019_Jul_19_0935;iat_vr;59.76866217732733;
1;WASSER;Natur;q;1;6;16;1;q;1;0.7881906170514412;001;13719067;2019_Jul_19_0935;iat_vr;59.76866217732733;
1;STEIN;Natur;q;1;7;17;4;q;1;0.7521443059667945;001;13719067;2019_Jul_19_0935;iat_vr;59.76866217732733;
1;BAUM;Natur;q;1;8;18;0;q;1;0.5722425939748064;001;13719067;2019_Jul_19_0935;iat_vr;59.76866217732733;
1;TIER;Natur;q;1;9;19;3;q;1;0.5543620230164379;001;13719067;2019_Jul_19_0935;iat_vr;59.76866217732733;
;;;;;;;;;;;001;13719067;2019_Jul_19_0935;iat_vr;59.76866217732733;
2;AUSGEZEICHNET;positiv;p;0;0;0;5;p;1;1.0550536650116555;001;13719067;2019_Jul_19_0935;iat_vr;59.76866217732733;
2;SCHLECHT;negativ;q;0;1;1;1;q;1;0.6204552900162525;001;13719067;2019_Jul_19_0935;iat_vr;59.76866217732733;
2;SCHLIMM;negativ;q;0;2;2;0;q;1;0.7380573260015808;001;13719067;2019_Jul_19_0935;iat_vr;59.76866217732733;
2;POSITIV;positiv;p;0;3;3;8;p;1;0.7876787040149793;001;13719067;2019_Jul_19_0935;iat_vr;59.76866217732733;
2;SCHWACH;negativ;q;0;4;4;4;q;1;0.8057443940197118;001;13719067;2019_Jul_19_0935;iat_vr;59.76866217732733;
2;GUT;positiv;p;0;5;5;9;p;1;1.240022562968079;001;13719067;2019_Jul_19_0935;iat_vr;59.76866217732733;
2;HERVORRAGEND;positiv;p;0;6;6;7;p;1;0.7056360390270129;001;13719067;2019_Jul_19_0935;iat_vr;59.76866217732733;
2;NEGATIV;negativ;q;0;7;7;2;q;1;0.7713571899803355;001;13719067;2019_Jul_19_0935;iat_vr;59.76866217732733;
2;EINWANDFREI;positiv;p;0;8;8;6;p;1;0.8715698979794979;001;13719067;2019_Jul_19_0935;iat_vr;59.76866217732733;
2;SCHÄDLICH;negativ;q;0;9;9;3;q;1;0.6206256420118734;001;13719067;2019_Jul_19_0935;iat_vr;59.76866217732733;
2;HERVORRAGEND;positiv;p;1;0;10;7;q;0;0.7543665060075;001;13719067;2019_Jul_19_0935;iat_vr;59.76866217732733;
2;SCHÄDLICH;negativ;q;1;1;11;3;q;1;1.672139131987933;001;13719067;2019_Jul_19_0935;iat_vr;59.76866217732733;
2;SCHLIMM;negativ;q;1;2;12;0;q;1;0.7219334630062804;001;13719067;2019_Jul_19_0935;iat_vr;59.76866217732733;
2;NEGATIV;negativ;q;1;3;13;2;q;1;0.5388282909989357;001;13719067;2019_Jul_19_0935;iat_vr;59.76866217732733;
2;GUT;positiv;p;1;4;14;9;p;1;0.5878662409959361;001;13719067;2019_Jul_19_0935;iat_vr;59.76866217732733;
2;SCHWACH;negativ;q;1;5;15;4;q;1;0.6722068500239402;001;13719067;2019_Jul_19_0935;iat_vr;59.76866217732733;
2;POSITIV;positiv;p;1;6;16;8;p;1;0.6046694599790499;001;13719067;2019_Jul_19_0935;iat_vr;59.76866217732733;
2;SCHLECHT;negativ;q;1;7;17;1;q;1;0.5721316419658251;001;13719067;2019_Jul_19_0935;iat_vr;59.76866217732733;
2;AUSGEZEICHNET;positiv;p;1;8;18;5;p;1;0.6042909849784337;001;13719067;2019_Jul_19_0935;iat_vr;59.76866217732733;
2;EINWANDFREI;positiv;p;1;9;19;6;q;0;0.6880425050039776;001;13719067;2019_Jul_19_0935;iat_vr;59.76866217732733;
;;;;;;;;;;;001;13719067;2019_Jul_19_0935;iat_vr;59.76866217732733;
3;WASSER;Natur;q;0;0;0;11;q;1;1.0391709320247173;001;13719067;2019_Jul_19_0935;iat_vr;59.76866217732733;
3;GUT;positiv;p;0;1;1;9;q;0;0.5706070569576696;001;13719067;2019_Jul_19_0935;iat_vr;59.76866217732733;
3;LAMPE;Gemacht;p;0;2;2;19;p;1;3.0564287700108252;001;13719067;2019_Jul_19_0935;iat_vr;59.76866217732733;
3;HERVORRAGEND;positiv;p;0;3;3;7;p;1;2.822004679008387;001;13719067;2019_Jul_19_0935;iat_vr;59.76866217732733;
3;NEGATIV;negativ;q;0;4;4;2;q;1;0.7857953550410457;001;13719067;2019_Jul_19_0935;iat_vr;59.76866217732733;
3;BLUME;Natur;q;0;5;5;12;q;1;0.7893441509804688;001;13719067;2019_Jul_19_0935;iat_vr;59.76866217732733;
3;GEBÄUDE;Gemacht;p;0;6;6;15;p;1;0.904927912983112;001;13719067;2019_Jul_19_0935;iat_vr;59.76866217732733;
3;SCHWACH;negativ;q;0;7;7;4;q;1;0.955659149971325;001;13719067;2019_Jul_19_0935;iat_vr;59.76866217732733;
3;SCHLECHT;negativ;q;0;8;8;1;q;1;0.88900286401622;001;13719067;2019_Jul_19_0935;iat_vr;59.76866217732733;
3;COMPUTER;Gemacht;p;0;9;9;18;p;1;0.9718163919751532;001;13719067;2019_Jul_19_0935;iat_vr;59.76866217732733;
3;SCHLIMM;negativ;q;0;10;10;0;q;1;0.7358378319768235;001;13719067;2019_Jul_19_0935;iat_vr;59.76866217732733;
3;STEIN;Natur;q;0;11;11;14;p;0;0.756134059978649;001;13719067;2019_Jul_19_0935;iat_vr;59.76866217732733;
3;KLEIDER;Gemacht;p;0;12;12;17;p;1;0.8059407959808595;001;13719067;2019_Jul_19_0935;iat_vr;59.76866217732733;
3;TIER;Natur;q;0;13;13;13;q;1;0.6559937749989331;001;13719067;2019_Jul_19_0935;iat_vr;59.76866217732733;
3;POSITIV;positiv;p;0;14;14;8;q;0;0.6686738129938021;001;13719067;2019_Jul_19_0935;iat_vr;59.76866217732733;
3;AUSGEZEICHNET;positiv;p;0;15;15;5;p;1;1.5886784209869802;001;13719067;2019_Jul_19_0935;iat_vr;59.76866217732733;
3;BAUM;Natur;q;0;16;16;10;q;1;0.7047481350018643;001;13719067;2019_Jul_19_0935;iat_vr;59.76866217732733;
3;SCHÄDLICH;negativ;q;0;17;17;3;q;1;0.8549147919984534;001;13719067;2019_Jul_19_0935;iat_vr;59.76866217732733;
3;STADT;Gemacht;p;0;18;18;16;p;1;1.0562562389532104;001;13719067;2019_Jul_19_0935;iat_vr;59.76866217732733;
3;EINWANDFREI;positiv;p;0;19;19;6;q;0;1.150782048003748;001;13719067;2019_Jul_19_0935;iat_vr;59.76866217732733;
;;;;;;;;;;;001;13719067;2019_Jul_19_0935;iat_vr;59.76866217732733;
4;SCHÄDLICH;negativ;q;0;0;0;3;q;1;3.124147002992686;001;13719067;2019_Jul_19_0935;iat_vr;59.76866217732733;
4;POSITIV;positiv;p;0;1;1;8;p;1;0.6715191199909896;001;13719067;2019_Jul_19_0935;iat_vr;59.76866217732733;
4;SCHLIMM;negativ;q;0;2;2;0;q;1;0.6218137930263765;001;13719067;2019_Jul_19_0935;iat_vr;59.76866217732733;
4;GUT;positiv;p;0;3;3;9;p;1;1.0063089280156419;001;13719067;2019_Jul_19_0935;iat_vr;59.76866217732733;
4;COMPUTER;Gemacht;p;0;4;4;18;p;1;1.4037263459758833;001;13719067;2019_Jul_19_0935;iat_vr;59.76866217732733;
4;EINWANDFREI;positiv;p;0;5;5;6;p;1;1.5378376449807547;001;13719067;2019_Jul_19_0935;iat_vr;59.76866217732733;
4;GEBÄUDE;Gemacht;p;0;6;6;15;p;1;0.7884564209962264;001;13719067;2019_Jul_19_0935;iat_vr;59.76866217732733;
4;HERVORRAGEND;positiv;p;0;7;7;7;p;1;0.6377352830022573;001;13719067;2019_Jul_19_0935;iat_vr;59.76866217732733;
4;TIER;Natur;q;0;8;8;13;q;1;0.7710375209571794;001;13719067;2019_Jul_19_0935;iat_vr;59.76866217732733;
4;WASSER;Natur;q;0;9;9;11;q;1;0.5879055820405483;001;13719067;2019_Jul_19_0935;iat_vr;59.76866217732733;
4;NEGATIV;negativ;q;0;10;10;2;q;1;0.7217641819734126;001;13719067;2019_Jul_19_0935;iat_vr;59.76866217732733;
4;STADT;Gemacht;p;0;11;11;16;p;1;1.0719969379715621;001;13719067;2019_Jul_19_0935;iat_vr;59.76866217732733;
4;SCHWACH;negativ;q;0;12;12;4;q;1;1.1523026279755868;001;13719067;2019_Jul_19_0935;iat_vr;59.76866217732733;
4;STEIN;Natur;q;0;13;13;14;q;1;0.7724516019807197;001;13719067;2019_Jul_19_0935;iat_vr;59.76866217732733;
4;SCHLECHT;negativ;q;0;14;14;1;q;1;0.605407862982247;001;13719067;2019_Jul_19_0935;iat_vr;59.76866217732733;
4;BAUM;Natur;q;0;15;15;10;q;1;0.6731281560496427;001;13719067;2019_Jul_19_0935;iat_vr;59.76866217732733;
4;BLUME;Natur;q;0;16;16;12;q;1;0.4718008629861288;001;13719067;2019_Jul_19_0935;iat_vr;59.76866217732733;
4;AUSGEZEICHNET;positiv;p;0;17;17;5;q;0;0.4871883919695392;001;13719067;2019_Jul_19_0935;iat_vr;59.76866217732733;
4;LAMPE;Gemacht;p;0;18;18;19;p;1;0.6561654969700612;001;13719067;2019_Jul_19_0935;iat_vr;59.76866217732733;
4;KLEIDER;Gemacht;p;0;19;19;17;p;1;0.5386667469865642;001;13719067;2019_Jul_19_0935;iat_vr;59.76866217732733;
4;GUT;positiv;p;1;0;20;9;q;0;0.538090504007414;001;13719067;2019_Jul_19_0935;iat_vr;59.76866217732733;
4;BAUM;Natur;q;1;1;21;10;q;1;1.2375703870202415;001;13719067;2019_Jul_19_0935;iat_vr;59.76866217732733;
4;TIER;Natur;q;1;2;22;13;q;1;0.5563230769475922;001;13719067;2019_Jul_19_0935;iat_vr;59.76866217732733;
4;KLEIDER;Gemacht;p;1;3;23;17;p;1;2.622692459030077;001;13719067;2019_Jul_19_0935;iat_vr;59.76866217732733;
4;SCHÄDLICH;negativ;q;1;4;24;3;q;1;0.6218048550072126;001;13719067;2019_Jul_19_0935;iat_vr;59.76866217732733;
4;POSITIV;positiv;p;1;5;25;8;q;0;0.5017506250296719;001;13719067;2019_Jul_19_0935;iat_vr;59.76866217732733;
4;SCHWACH;negativ;q;1;6;26;4;q;1;0.7396460400195792;001;13719067;2019_Jul_19_0935;iat_vr;59.76866217732733;
4;BLUME;Natur;q;1;7;27;12;q;1;0.8053458009962924;001;13719067;2019_Jul_19_0935;iat_vr;59.76866217732733;
4;GEBÄUDE;Gemacht;p;1;8;28;15;p;1;0.5560374489868991;001;13719067;2019_Jul_19_0935;iat_vr;59.76866217732733;
4;WASSER;Natur;q;1;9;29;11;q;1;0.5724026130046695;001;13719067;2019_Jul_19_0935;iat_vr;59.76866217732733;
4;LAMPE;Gemacht;p;1;10;30;19;q;0;0.6060155719751492;001;13719067;2019_Jul_19_0935;iat_vr;59.76866217732733;
4;NEGATIV;negativ;q;1;11;31;2;q;1;0.6854346999898553;001;13719067;2019_Jul_19_0935;iat_vr;59.76866217732733;
4;COMPUTER;Gemacht;p;1;12;32;18;q;0;0.5720335110090673;001;13719067;2019_Jul_19_0935;iat_vr;59.76866217732733;
4;AUSGEZEICHNET;positiv;p;1;13;33;5;p;1;1.2716339050093666;001;13719067;2019_Jul_19_0935;iat_vr;59.76866217732733;
4;HERVORRAGEND;positiv;p;1;14;34;7;p;1;0.5877858019666746;001;13719067;2019_Jul_19_0935;iat_vr;59.76866217732733;
4;SCHLECHT;negativ;q;1;15;35;1;q;1;0.5721114139887504;001;13719067;2019_Jul_19_0935;iat_vr;59.76866217732733;
4;STEIN;Natur;q;1;16;36;14;q;1;0.6861261199810542;001;13719067;2019_Jul_19_0935;iat_vr;59.76866217732733;
4;SCHLIMM;negativ;q;1;17;37;0;q;1;0.6204520860337652;001;13719067;2019_Jul_19_0935;iat_vr;59.76866217732733;
4;STADT;Gemacht;p;1;18;38;16;q;0;0.656155952019617;001;13719067;2019_Jul_19_0935;iat_vr;59.76866217732733;
4;EINWANDFREI;positiv;p;1;19;39;6;p;1;1.0546663249842823;001;13719067;2019_Jul_19_0935;iat_vr;59.76866217732733;
;;;;;;;;;;;001;13719067;2019_Jul_19_0935;iat_vr;59.76866217732733;
5;STEIN;Natur;p;0;0;0;4;p;1;2.0054562750156038;001;13719067;2019_Jul_19_0935;iat_vr;59.76866217732733;
5;LAMPE;Gemacht;q;0;1;1;9;q;1;0.6721374210319482;001;13719067;2019_Jul_19_0935;iat_vr;59.76866217732733;
5;KLEIDER;Gemacht;q;0;2;2;7;q;1;0.6046371670090593;001;13719067;2019_Jul_19_0935;iat_vr;59.76866217732733;
5;BAUM;Natur;p;0;3;3;0;p;1;0.6400877280393615;001;13719067;2019_Jul_19_0935;iat_vr;59.76866217732733;
5;STADT;Gemacht;q;0;4;4;6;q;1;2.00681892700959;001;13719067;2019_Jul_19_0935;iat_vr;59.76866217732733;
5;WASSER;Natur;p;0;5;5;1;q;0;0.7883131449925713;001;13719067;2019_Jul_19_0935;iat_vr;59.76866217732733;
5;GEBÄUDE;Gemacht;q;0;6;6;5;q;1;0.9554637849796563;001;13719067;2019_Jul_19_0935;iat_vr;59.76866217732733;
5;COMPUTER;Gemacht;q;0;7;7;8;q;1;0.7720809919992462;001;13719067;2019_Jul_19_0935;iat_vr;59.76866217732733;
5;TIER;Natur;p;0;8;8;3;p;1;0.5898353190277703;001;13719067;2019_Jul_19_0935;iat_vr;59.76866217732733;
5;BLUME;Natur;p;0;9;9;2;p;1;0.5859224399900995;001;13719067;2019_Jul_19_0935;iat_vr;59.76866217732733;
5;WASSER;Natur;p;1;0;10;1;p;1;0.5725191590026952;001;13719067;2019_Jul_19_0935;iat_vr;59.76866217732733;
5;KLEIDER;Gemacht;q;1;1;11;7;q;1;0.6555463550030254;001;13719067;2019_Jul_19_0935;iat_vr;59.76866217732733;
5;BAUM;Natur;p;1;2;12;0;p;1;0.5727470589918084;001;13719067;2019_Jul_19_0935;iat_vr;59.76866217732733;
5;BLUME;Natur;p;1;3;13;2;p;1;0.655029363988433;001;13719067;2019_Jul_19_0935;iat_vr;59.76866217732733;
5;TIER;Natur;p;1;4;14;3;p;1;0.5561905939830467;001;13719067;2019_Jul_19_0935;iat_vr;59.76866217732733;
5;STADT;Gemacht;q;1;5;15;6;q;1;0.5855150319985114;001;13719067;2019_Jul_19_0935;iat_vr;59.76866217732733;
5;COMPUTER;Gemacht;q;1;6;16;8;q;1;0.7546714709606022;001;13719067;2019_Jul_19_0935;iat_vr;59.76866217732733;
5;LAMPE;Gemacht;q;1;7;17;9;q;1;0.5723089689854532;001;13719067;2019_Jul_19_0935;iat_vr;59.76866217732733;
5;STEIN;Natur;p;1;8;18;4;q;0;0.5691172340302728;001;13719067;2019_Jul_19_0935;iat_vr;59.76866217732733;
5;GEBÄUDE;Gemacht;q;1;9;19;5;q;1;1.8563868600176647;001;13719067;2019_Jul_19_0935;iat_vr;59.76866217732733;
;;;;;;;;;;;001;13719067;2019_Jul_19_0935;iat_vr;59.76866217732733;
6;NEGATIV;negativ;q;0;0;0;12;q;1;1.2880186819820665;001;13719067;2019_Jul_19_0935;iat_vr;59.76866217732733;
6;HERVORRAGEND;positiv;p;0;1;1;17;p;1;0.9374567699851468;001;13719067;2019_Jul_19_0935;iat_vr;59.76866217732733;
6;STEIN;Natur;p;0;2;2;4;q;0;0.9726996030076407;001;13719067;2019_Jul_19_0935;iat_vr;59.76866217732733;
6;BLUME;Natur;p;0;3;3;2;p;1;1.0395984959905036;001;13719067;2019_Jul_19_0935;iat_vr;59.76866217732733;
6;GEBÄUDE;Gemacht;q;0;4;4;5;q;1;3.0567161689978093;001;13719067;2019_Jul_19_0935;iat_vr;59.76866217732733;
6;GUT;positiv;p;0;5;5;19;p;1;1.039379702997394;001;13719067;2019_Jul_19_0935;iat_vr;59.76866217732733;
6;EINWANDFREI;positiv;p;0;6;6;16;p;1;0.7050445309723727;001;13719067;2019_Jul_19_0935;iat_vr;59.76866217732733;
6;STADT;Gemacht;q;0;7;7;6;p;0;0.9561025709845126;001;13719067;2019_Jul_19_0935;iat_vr;59.76866217732733;
6;SCHLECHT;negativ;q;0;8;8;11;q;1;0.8554579089977778;001;13719067;2019_Jul_19_0935;iat_vr;59.76866217732733;
6;BAUM;Natur;p;0;9;9;0;p;1;1.1523183610406704;001;13719067;2019_Jul_19_0935;iat_vr;59.76866217732733;
6;SCHLIMM;negativ;q;0;10;10;10;q;1;0.5880657560192049;001;13719067;2019_Jul_19_0935;iat_vr;59.76866217732733;
6;SCHWACH;negativ;q;0;11;11;14;q;1;0.6389462650404312;001;13719067;2019_Jul_19_0935;iat_vr;59.76866217732733;
6;KLEIDER;Gemacht;q;0;12;12;7;q;1;0.5891260280041024;001;13719067;2019_Jul_19_0935;iat_vr;59.76866217732733;
6;COMPUTER;Gemacht;q;0;13;13;8;q;1;0.8035587589838542;001;13719067;2019_Jul_19_0935;iat_vr;59.76866217732733;
6;POSITIV;positiv;p;0;14;14;18;p;1;0.6890142220072448;001;13719067;2019_Jul_19_0935;iat_vr;59.76866217732733;
6;AUSGEZEICHNET;positiv;p;0;15;15;15;p;1;0.6541595369926654;001;13719067;2019_Jul_19_0935;iat_vr;59.76866217732733;
6;WASSER;Natur;p;0;16;16;1;p;1;0.5052963049965911;001;13719067;2019_Jul_19_0935;iat_vr;59.76866217732733;
6;SCHÄDLICH;negativ;q;0;17;17;13;q;1;1.3694046550081111;001;13719067;2019_Jul_19_0935;iat_vr;59.76866217732733;
6;LAMPE;Gemacht;q;0;18;18;9;q;1;0.6382387669873424;001;13719067;2019_Jul_19_0935;iat_vr;59.76866217732733;
6;TIER;Natur;p;0;19;19;3;p;1;0.5897888129693456;001;13719067;2019_Jul_19_0935;iat_vr;59.76866217732733;
;;;;;;;;;;;001;13719067;2019_Jul_19_0935;iat_vr;59.76866217732733;
7;POSITIV;positiv;p;0;0;0;18;p;1;0.8375273419660516;001;13719067;2019_Jul_19_0935;iat_vr;59.76866217732733;
7;SCHWACH;negativ;q;0;1;1;14;q;1;0.6213173430296592;001;13719067;2019_Jul_19_0935;iat_vr;59.76866217732733;
7;AUSGEZEICHNET;positiv;p;0;2;2;15;p;1;0.6039343220181763;001;13719067;2019_Jul_19_0935;iat_vr;59.76866217732733;
7;SCHLECHT;negativ;q;0;3;3;11;q;1;0.5723376810201444;001;13719067;2019_Jul_19_0935;iat_vr;59.76866217732733;
7;STADT;Gemacht;q;0;4;4;6;p;0;0.6725220449734479;001;13719067;2019_Jul_19_0935;iat_vr;59.76866217732733;
7;HERVORRAGEND;positiv;p;0;5;5;17;p;1;1.054730337986257;001;13719067;2019_Jul_19_0935;iat_vr;59.76866217732733;
7;GUT;positiv;p;0;6;6;19;p;1;0.7026585169951431;001;13719067;2019_Jul_19_0935;iat_vr;59.76866217732733;
7;KLEIDER;Gemacht;q;0;7;7;7;q;1;0.5226675139856525;001;13719067;2019_Jul_19_0935;iat_vr;59.76866217732733;
7;BLUME;Natur;p;0;8;8;2;p;1;0.6388316210359335;001;13719067;2019_Jul_19_0935;iat_vr;59.76866217732733;
7;WASSER;Natur;p;0;9;9;1;p;1;0.5021341279498301;001;13719067;2019_Jul_19_0935;iat_vr;59.76866217732733;
7;SCHÄDLICH;negativ;q;0;10;10;13;q;1;0.6882170590106398;001;13719067;2019_Jul_19_0935;iat_vr;59.76866217732733;
7;SCHLIMM;negativ;q;0;11;11;10;q;1;0.5557335200137459;001;13719067;2019_Jul_19_0935;iat_vr;59.76866217732733;
7;COMPUTER;Gemacht;q;0;12;12;8;q;1;0.5390676959650591;001;13719067;2019_Jul_19_0935;iat_vr;59.76866217732733;
7;LAMPE;Gemacht;q;0;13;13;9;q;1;0.5546275419765152;001;13719067;2019_Jul_19_0935;iat_vr;59.76866217732733;
7;TIER;Natur;p;0;14;14;3;p;1;0.5390154410270043;001;13719067;2019_Jul_19_0935;iat_vr;59.76866217732733;
7;EINWANDFREI;positiv;p;0;15;15;16;q;0;0.7673254589899443;001;13719067;2019_Jul_19_0935;iat_vr;59.76866217732733;
7;STEIN;Natur;p;0;16;16;4;q;0;0.7377965880441479;001;13719067;2019_Jul_19_0935;iat_vr;59.76866217732733;
7;NEGATIV;negativ;q;0;17;17;12;q;1;0.7055442499695346;001;13719067;2019_Jul_19_0935;iat_vr;59.76866217732733;
7;GEBÄUDE;Gemacht;q;0;18;18;5;q;1;0.5373539149877615;001;13719067;2019_Jul_19_0935;iat_vr;59.76866217732733;
7;BAUM;Natur;p;0;19;19;0;p;1;0.5725985480239615;001;13719067;2019_Jul_19_0935;iat_vr;59.76866217732733;
7;GUT;positiv;p;1;0;20;19;p;1;0.6709383979905397;001;13719067;2019_Jul_19_0935;iat_vr;59.76866217732733;
7;STADT;Gemacht;q;1;1;21;6;q;1;0.7715764609747566;001;13719067;2019_Jul_19_0935;iat_vr;59.76866217732733;
7;SCHÄDLICH;negativ;q;1;2;22;13;q;1;0.8879817269626074;001;13719067;2019_Jul_19_0935;iat_vr;59.76866217732733;
7;SCHLECHT;negativ;q;1;3;23;11;q;1;0.8054417090024799;001;13719067;2019_Jul_19_0935;iat_vr;59.76866217732733;
7;NEGATIV;negativ;q;1;4;24;12;q;1;0.7387028059456497;001;13719067;2019_Jul_19_0935;iat_vr;59.76866217732733;
7;GEBÄUDE;Gemacht;q;1;5;25;5;q;1;0.7385051929741167;001;13719067;2019_Jul_19_0935;iat_vr;59.76866217732733;
7;AUSGEZEICHNET;positiv;p;1;6;26;15;p;1;0.6710050950059667;001;13719067;2019_Jul_19_0935;iat_vr;59.76866217732733;
7;KLEIDER;Gemacht;q;1;7;27;7;p;0;0.5385990510112606;001;13719067;2019_Jul_19_0935;iat_vr;59.76866217732733;
7;STEIN;Natur;p;1;8;28;4;q;0;0.2893162819673307;001;13719067;2019_Jul_19_0935;iat_vr;59.76866217732733;
7;HERVORRAGEND;positiv;p;1;9;29;17;p;1;0.6212239779997617;001;13719067;2019_Jul_19_0935;iat_vr;59.76866217732733;
7;COMPUTER;Gemacht;q;1;10;30;8;q;1;0.6387196800205857;001;13719067;2019_Jul_19_0935;iat_vr;59.76866217732733;
7;WASSER;Natur;p;1;11;31;1;p;1;0.5557151960092597;001;13719067;2019_Jul_19_0935;iat_vr;59.76866217732733;
7;SCHWACH;negativ;q;1;12;32;14;q;1;0.5882390739861876;001;13719067;2019_Jul_19_0935;iat_vr;59.76866217732733;
7;POSITIV;positiv;p;1;13;33;18;p;1;1.1059821589733474;001;13719067;2019_Jul_19_0935;iat_vr;59.76866217732733;
7;EINWANDFREI;positiv;p;1;14;34;16;p;1;0.7679280650336295;001;13719067;2019_Jul_19_0935;iat_vr;59.76866217732733;
7;SCHLIMM;negativ;q;1;15;35;10;q;1;0.6558084569987841;001;13719067;2019_Jul_19_0935;iat_vr;59.76866217732733;
7;BLUME;Natur;p;1;16;36;2;p;1;0.9055323379579931;001;13719067;2019_Jul_19_0935;iat_vr;59.76866217732733;
7;BAUM;Natur;p;1;17;37;0;p;1;0.48942352400626987;001;13719067;2019_Jul_19_0935;iat_vr;59.76866217732733;
7;LAMPE;Gemacht;q;1;18;38;9;p;0;0.38910320395370945;001;13719067;2019_Jul_19_0935;iat_vr;59.76866217732733;
7;TIER;Natur;p;1;19;39;3;p;1;0.9558448410243727;001;13719067;2019_Jul_19_0935;iat_vr;59.76866217732733;
;;;;;;;;;;;001;13719067;2019_Jul_19_0935;iat_vr;59.76866217732733;
