Block;Word;Category;CorrResp;trials.thisRepN;trials.thisTrialN;trials.thisN;trials.thisIndex;key_resp_2.keys;key_resp_2.corr;key_resp_2.rt;session;participant;date;expName;frameRate;
1;KLEIDER;Gemacht;p;0;0;0;7;p;1;1.3215657339987956;001;14131965;2019_May_21_1458;iat_vr;59.6018411052722;
1;WASSER;Natur;q;0;1;1;1;q;1;0.8213615290005691;001;14131965;2019_May_21_1458;iat_vr;59.6018411052722;
1;TIER;Natur;q;0;2;2;3;q;1;0.837206263000553;001;14131965;2019_May_21_1458;iat_vr;59.6018411052722;
1;BLUME;Natur;q;0;3;3;2;q;1;0.6035301140000229;001;14131965;2019_May_21_1458;iat_vr;59.6018411052722;
1;STADT;Gemacht;p;0;4;4;6;p;1;0.6558119269993767;001;14131965;2019_May_21_1458;iat_vr;59.6018411052722;
1;BAUM;Natur;q;0;5;5;0;q;1;0.6385666820006008;001;14131965;2019_May_21_1458;iat_vr;59.6018411052722;
1;STEIN;Natur;q;0;6;6;4;q;1;0.7715667060001579;001;14131965;2019_May_21_1458;iat_vr;59.6018411052722;
1;GEBÄUDE;Gemacht;p;0;7;7;5;p;1;0.5712161089995789;001;14131965;2019_May_21_1458;iat_vr;59.6018411052722;
1;LAMPE;Gemacht;p;0;8;8;9;p;1;0.5542418450004334;001;14131965;2019_May_21_1458;iat_vr;59.6018411052722;
1;COMPUTER;Gemacht;p;0;9;9;8;p;1;0.5203042840003036;001;14131965;2019_May_21_1458;iat_vr;59.6018411052722;
1;STADT;Gemacht;p;1;0;10;6;p;1;0.45585577100064256;001;14131965;2019_May_21_1458;iat_vr;59.6018411052722;
1;BLUME;Natur;q;1;1;11;2;q;1;0.6395154439996986;001;14131965;2019_May_21_1458;iat_vr;59.6018411052722;
1;LAMPE;Gemacht;p;1;2;12;9;p;1;0.5725613579998026;001;14131965;2019_May_21_1458;iat_vr;59.6018411052722;
1;TIER;Natur;q;1;3;13;3;q;1;0.5044578069991985;001;14131965;2019_May_21_1458;iat_vr;59.6018411052722;
1;BAUM;Natur;q;1;4;14;0;q;1;0.5895143010002357;001;14131965;2019_May_21_1458;iat_vr;59.6018411052722;
1;GEBÄUDE;Gemacht;p;1;5;15;5;p;1;0.6554698309992091;001;14131965;2019_May_21_1458;iat_vr;59.6018411052722;
1;COMPUTER;Gemacht;p;1;6;16;8;p;1;0.5517922099988937;001;14131965;2019_May_21_1458;iat_vr;59.6018411052722;
1;WASSER;Natur;q;1;7;17;1;q;1;0.5713456110006518;001;14131965;2019_May_21_1458;iat_vr;59.6018411052722;
1;STEIN;Natur;q;1;8;18;4;q;1;0.5554206060005527;001;14131965;2019_May_21_1458;iat_vr;59.6018411052722;
1;KLEIDER;Gemacht;p;1;9;19;7;p;1;0.5055156559992611;001;14131965;2019_May_21_1458;iat_vr;59.6018411052722;
;;;;;;;;;;;001;14131965;2019_May_21_1458;iat_vr;59.6018411052722;
2;SCHLECHT;negativ;q;0;0;0;1;q;1;1.1042342979999376;001;14131965;2019_May_21_1458;iat_vr;59.6018411052722;
2;AUSGEZEICHNET;positiv;p;0;1;1;5;p;1;0.7542296079991502;001;14131965;2019_May_21_1458;iat_vr;59.6018411052722;
2;SCHÄDLICH;negativ;q;0;2;2;3;q;1;0.6877007860002777;001;14131965;2019_May_21_1458;iat_vr;59.6018411052722;
2;HERVORRAGEND;positiv;p;0;3;3;7;p;1;0.7032906570002524;001;14131965;2019_May_21_1458;iat_vr;59.6018411052722;
2;EINWANDFREI;positiv;p;0;4;4;6;p;1;1.2040273799993884;001;14131965;2019_May_21_1458;iat_vr;59.6018411052722;
2;SCHWACH;negativ;q;0;5;5;4;q;1;0.621761571001116;001;14131965;2019_May_21_1458;iat_vr;59.6018411052722;
2;NEGATIV;negativ;q;0;6;6;2;q;1;0.7890843779987335;001;14131965;2019_May_21_1458;iat_vr;59.6018411052722;
2;POSITIV;positiv;p;0;7;7;8;p;1;0.8547434809988772;001;14131965;2019_May_21_1458;iat_vr;59.6018411052722;
2;GUT;positiv;p;0;8;8;9;p;1;0.6560458230014774;001;14131965;2019_May_21_1458;iat_vr;59.6018411052722;
2;SCHLIMM;negativ;q;0;9;9;0;q;1;0.5556344190008531;001;14131965;2019_May_21_1458;iat_vr;59.6018411052722;
2;GUT;positiv;p;1;0;10;9;p;1;0.7043957479982055;001;14131965;2019_May_21_1458;iat_vr;59.6018411052722;
2;SCHÄDLICH;negativ;q;1;1;11;3;q;1;0.8718067999998311;001;14131965;2019_May_21_1458;iat_vr;59.6018411052722;
2;SCHLIMM;negativ;q;1;2;12;0;q;1;0.5189675290002924;001;14131965;2019_May_21_1458;iat_vr;59.6018411052722;
2;POSITIV;positiv;p;1;3;13;8;p;1;0.5054988949996186;001;14131965;2019_May_21_1458;iat_vr;59.6018411052722;
2;SCHLECHT;negativ;q;1;4;14;1;q;1;0.4707641570003034;001;14131965;2019_May_21_1458;iat_vr;59.6018411052722;
2;NEGATIV;negativ;q;1;5;15;2;q;1;0.7057772210009716;001;14131965;2019_May_21_1458;iat_vr;59.6018411052722;
2;EINWANDFREI;positiv;p;1;6;16;6;p;1;0.5867829210001219;001;14131965;2019_May_21_1458;iat_vr;59.6018411052722;
2;AUSGEZEICHNET;positiv;p;1;7;17;5;p;1;0.5714581310003268;001;14131965;2019_May_21_1458;iat_vr;59.6018411052722;
2;SCHWACH;negativ;q;1;8;18;4;q;1;0.5720771399992373;001;14131965;2019_May_21_1458;iat_vr;59.6018411052722;
2;HERVORRAGEND;positiv;p;1;9;19;7;p;1;0.7049747119999665;001;14131965;2019_May_21_1458;iat_vr;59.6018411052722;
;;;;;;;;;;;001;14131965;2019_May_21_1458;iat_vr;59.6018411052722;
3;EINWANDFREI;positiv;p;0;0;0;6;p;1;1.4388141780000296;001;14131965;2019_May_21_1458;iat_vr;59.6018411052722;
3;TIER;Natur;q;0;1;1;13;q;1;1.0565854039996339;001;14131965;2019_May_21_1458;iat_vr;59.6018411052722;
3;STADT;Gemacht;p;0;2;2;16;p;1;1.0898338419992797;001;14131965;2019_May_21_1458;iat_vr;59.6018411052722;
3;AUSGEZEICHNET;positiv;p;0;3;3;5;p;1;1.6377671110003575;001;14131965;2019_May_21_1458;iat_vr;59.6018411052722;
3;KLEIDER;Gemacht;p;0;4;4;17;p;1;2.556306718999622;001;14131965;2019_May_21_1458;iat_vr;59.6018411052722;
3;BAUM;Natur;q;0;5;5;10;q;1;0.8876923470015754;001;14131965;2019_May_21_1458;iat_vr;59.6018411052722;
3;SCHLECHT;negativ;q;0;6;6;1;q;1;0.8215252840000176;001;14131965;2019_May_21_1458;iat_vr;59.6018411052722;
3;HERVORRAGEND;positiv;p;0;7;7;7;p;1;0.8213871309999377;001;14131965;2019_May_21_1458;iat_vr;59.6018411052722;
3;SCHÄDLICH;negativ;q;0;8;8;3;q;1;0.737676779001049;001;14131965;2019_May_21_1458;iat_vr;59.6018411052722;
3;STEIN;Natur;q;0;9;9;14;q;1;0.8220345099998667;001;14131965;2019_May_21_1458;iat_vr;59.6018411052722;
3;BLUME;Natur;q;0;10;10;12;q;1;0.6709925759987527;001;14131965;2019_May_21_1458;iat_vr;59.6018411052722;
3;COMPUTER;Gemacht;p;0;11;11;18;p;1;0.6714878639995732;001;14131965;2019_May_21_1458;iat_vr;59.6018411052722;
3;NEGATIV;negativ;q;0;12;12;2;p;0;0.6221548780013109;001;14131965;2019_May_21_1458;iat_vr;59.6018411052722;
3;SCHWACH;negativ;q;0;13;13;4;q;1;2.186050628000885;001;14131965;2019_May_21_1458;iat_vr;59.6018411052722;
3;WASSER;Natur;q;0;14;14;11;q;1;1.005576965999353;001;14131965;2019_May_21_1458;iat_vr;59.6018411052722;
3;SCHLIMM;negativ;q;0;15;15;0;p;0;0.8889818979987467;001;14131965;2019_May_21_1458;iat_vr;59.6018411052722;
3;POSITIV;positiv;p;0;16;16;8;p;1;0.8715429809999478;001;14131965;2019_May_21_1458;iat_vr;59.6018411052722;
3;GEBÄUDE;Gemacht;p;0;17;17;15;p;1;1.4562210109997977;001;14131965;2019_May_21_1458;iat_vr;59.6018411052722;
3;LAMPE;Gemacht;p;0;18;18;19;p;1;0.855525322000176;001;14131965;2019_May_21_1458;iat_vr;59.6018411052722;
3;GUT;positiv;p;0;19;19;9;q;0;0.7899005090002902;001;14131965;2019_May_21_1458;iat_vr;59.6018411052722;
;;;;;;;;;;;001;14131965;2019_May_21_1458;iat_vr;59.6018411052722;
4;STEIN;Natur;q;0;0;0;14;q;1;1.0375217509990762;001;14131965;2019_May_21_1458;iat_vr;59.6018411052722;
4;EINWANDFREI;positiv;p;0;1;1;6;p;1;1.0035440459996607;001;14131965;2019_May_21_1458;iat_vr;59.6018411052722;
4;GUT;positiv;p;0;2;2;9;p;1;0.5877497389992641;001;14131965;2019_May_21_1458;iat_vr;59.6018411052722;
4;NEGATIV;negativ;q;0;3;3;2;q;1;1.1050746599994454;001;14131965;2019_May_21_1458;iat_vr;59.6018411052722;
4;AUSGEZEICHNET;positiv;p;0;4;4;5;p;1;0.6206545749992074;001;14131965;2019_May_21_1458;iat_vr;59.6018411052722;
4;HERVORRAGEND;positiv;p;0;5;5;7;p;1;0.6545550150003692;001;14131965;2019_May_21_1458;iat_vr;59.6018411052722;
4;SCHLECHT;negativ;q;0;6;6;1;q;1;0.7727080139993632;001;14131965;2019_May_21_1458;iat_vr;59.6018411052722;
4;SCHÄDLICH;negativ;q;0;7;7;3;q;1;1.288058281999838;001;14131965;2019_May_21_1458;iat_vr;59.6018411052722;
4;SCHWACH;negativ;q;0;8;8;4;q;1;0.5723508629998832;001;14131965;2019_May_21_1458;iat_vr;59.6018411052722;
4;STADT;Gemacht;p;0;9;9;16;q;0;0.7722087180009112;001;14131965;2019_May_21_1458;iat_vr;59.6018411052722;
4;GEBÄUDE;Gemacht;p;0;10;10;15;p;1;1.4892825139995693;001;14131965;2019_May_21_1458;iat_vr;59.6018411052722;
4;WASSER;Natur;q;0;11;11;11;q;1;0.7887713330001134;001;14131965;2019_May_21_1458;iat_vr;59.6018411052722;
4;COMPUTER;Gemacht;p;0;12;12;18;p;1;0.9548434150001412;001;14131965;2019_May_21_1458;iat_vr;59.6018411052722;
4;BLUME;Natur;q;0;13;13;12;q;1;0.6885263149997627;001;14131965;2019_May_21_1458;iat_vr;59.6018411052722;
4;BAUM;Natur;q;0;14;14;10;q;1;0.7883455499995762;001;14131965;2019_May_21_1458;iat_vr;59.6018411052722;
4;POSITIV;positiv;p;0;15;15;8;p;1;0.9057279130011011;001;14131965;2019_May_21_1458;iat_vr;59.6018411052722;
4;KLEIDER;Gemacht;p;0;16;16;17;q;0;0.7059314699999959;001;14131965;2019_May_21_1458;iat_vr;59.6018411052722;
4;SCHLIMM;negativ;q;0;17;17;0;q;1;1.2390682309996919;001;14131965;2019_May_21_1458;iat_vr;59.6018411052722;
4;LAMPE;Gemacht;p;0;18;18;19;p;1;1.3726481769990642;001;14131965;2019_May_21_1458;iat_vr;59.6018411052722;
4;TIER;Natur;q;0;19;19;13;q;1;0.8878193929995177;001;14131965;2019_May_21_1458;iat_vr;59.6018411052722;
4;AUSGEZEICHNET;positiv;p;1;0;20;5;p;1;1.1047128320005868;001;14131965;2019_May_21_1458;iat_vr;59.6018411052722;
4;STEIN;Natur;q;1;1;21;14;q;1;0.9860083969997504;001;14131965;2019_May_21_1458;iat_vr;59.6018411052722;
4;WASSER;Natur;q;1;2;22;11;q;1;0.7522109519995865;001;14131965;2019_May_21_1458;iat_vr;59.6018411052722;
4;GEBÄUDE;Gemacht;p;1;3;23;15;p;1;0.9720881400007784;001;14131965;2019_May_21_1458;iat_vr;59.6018411052722;
4;POSITIV;positiv;p;1;4;24;8;p;1;1.1212488760011183;001;14131965;2019_May_21_1458;iat_vr;59.6018411052722;
4;SCHLECHT;negativ;q;1;5;25;1;q;1;0.7057360489998246;001;14131965;2019_May_21_1458;iat_vr;59.6018411052722;
4;EINWANDFREI;positiv;p;1;6;26;6;p;1;0.8717315909998433;001;14131965;2019_May_21_1458;iat_vr;59.6018411052722;
4;LAMPE;Gemacht;p;1;7;27;19;q;0;0.7724933190002048;001;14131965;2019_May_21_1458;iat_vr;59.6018411052722;
4;NEGATIV;negativ;q;1;8;28;2;p;0;1.4725052779995167;001;14131965;2019_May_21_1458;iat_vr;59.6018411052722;
4;HERVORRAGEND;positiv;p;1;9;29;7;p;1;0.9346493550001469;001;14131965;2019_May_21_1458;iat_vr;59.6018411052722;
4;SCHLIMM;negativ;q;1;10;30;0;q;1;0.9561158969991084;001;14131965;2019_May_21_1458;iat_vr;59.6018411052722;
4;BAUM;Natur;q;1;11;31;10;q;1;1.1897371420000127;001;14131965;2019_May_21_1458;iat_vr;59.6018411052722;
4;SCHÄDLICH;negativ;q;1;12;32;3;q;1;0.9217356939989259;001;14131965;2019_May_21_1458;iat_vr;59.6018411052722;
4;COMPUTER;Gemacht;p;1;13;33;18;q;0;0.8552469719998044;001;14131965;2019_May_21_1458;iat_vr;59.6018411052722;
4;SCHWACH;negativ;q;1;14;34;4;q;1;0.9223065549995226;001;14131965;2019_May_21_1458;iat_vr;59.6018411052722;
4;GUT;positiv;p;1;15;35;9;p;1;0.6844286129999091;001;14131965;2019_May_21_1458;iat_vr;59.6018411052722;
4;KLEIDER;Gemacht;p;1;16;36;17;q;0;0.7557922190007957;001;14131965;2019_May_21_1458;iat_vr;59.6018411052722;
4;STADT;Gemacht;p;1;17;37;16;p;1;1.0390169149995927;001;14131965;2019_May_21_1458;iat_vr;59.6018411052722;
4;BLUME;Natur;q;1;18;38;12;q;1;0.6727430860009918;001;14131965;2019_May_21_1458;iat_vr;59.6018411052722;
4;TIER;Natur;q;1;19;39;13;q;1;0.6368316019998019;001;14131965;2019_May_21_1458;iat_vr;59.6018411052722;
;;;;;;;;;;;001;14131965;2019_May_21_1458;iat_vr;59.6018411052722;
5;TIER;Natur;p;0;0;0;3;p;1;1.6712554519999685;001;14131965;2019_May_21_1458;iat_vr;59.6018411052722;
5;STEIN;Natur;p;0;1;1;4;p;1;0.6562315940009285;001;14131965;2019_May_21_1458;iat_vr;59.6018411052722;
5;STADT;Gemacht;q;0;2;2;6;q;1;0.6223967930000072;001;14131965;2019_May_21_1458;iat_vr;59.6018411052722;
5;GEBÄUDE;Gemacht;q;0;3;3;5;q;1;0.7549262800002907;001;14131965;2019_May_21_1458;iat_vr;59.6018411052722;
5;BAUM;Natur;p;0;4;4;0;p;1;0.60620600600123;001;14131965;2019_May_21_1458;iat_vr;59.6018411052722;
5;WASSER;Natur;p;0;5;5;1;p;1;0.7058880169988697;001;14131965;2019_May_21_1458;iat_vr;59.6018411052722;
5;KLEIDER;Gemacht;q;0;6;6;7;q;1;0.5723414820004109;001;14131965;2019_May_21_1458;iat_vr;59.6018411052722;
5;BLUME;Natur;p;0;7;7;2;p;1;0.6051628349996463;001;14131965;2019_May_21_1458;iat_vr;59.6018411052722;
5;COMPUTER;Gemacht;q;0;8;8;8;p;0;0.6717066590008471;001;14131965;2019_May_21_1458;iat_vr;59.6018411052722;
5;LAMPE;Gemacht;q;0;9;9;9;q;1;1.0386879890011187;001;14131965;2019_May_21_1458;iat_vr;59.6018411052722;
5;COMPUTER;Gemacht;q;1;0;10;8;q;1;0.5213972130004549;001;14131965;2019_May_21_1458;iat_vr;59.6018411052722;
5;TIER;Natur;p;1;1;11;3;p;1;0.5543237440015218;001;14131965;2019_May_21_1458;iat_vr;59.6018411052722;
5;STADT;Gemacht;q;1;2;12;6;q;1;0.6216856829996686;001;14131965;2019_May_21_1458;iat_vr;59.6018411052722;
5;BLUME;Natur;p;1;3;13;2;p;1;0.6039181929991173;001;14131965;2019_May_21_1458;iat_vr;59.6018411052722;
5;BAUM;Natur;p;1;4;14;0;p;1;0.5386295169992081;001;14131965;2019_May_21_1458;iat_vr;59.6018411052722;
5;STEIN;Natur;p;1;5;15;4;p;1;0.8727391029988212;001;14131965;2019_May_21_1458;iat_vr;59.6018411052722;
5;WASSER;Natur;p;1;6;16;1;p;1;0.48821551599939994;001;14131965;2019_May_21_1458;iat_vr;59.6018411052722;
5;KLEIDER;Gemacht;q;1;7;17;7;q;1;0.6891318950001732;001;14131965;2019_May_21_1458;iat_vr;59.6018411052722;
5;LAMPE;Gemacht;q;1;8;18;9;q;1;0.535049527999945;001;14131965;2019_May_21_1458;iat_vr;59.6018411052722;
5;GEBÄUDE;Gemacht;q;1;9;19;5;q;1;0.5391037790013797;001;14131965;2019_May_21_1458;iat_vr;59.6018411052722;
;;;;;;;;;;;001;14131965;2019_May_21_1458;iat_vr;59.6018411052722;
6;LAMPE;Gemacht;q;0;0;0;9;q;1;1.2717495830002008;001;14131965;2019_May_21_1458;iat_vr;59.6018411052722;
6;SCHÄDLICH;negativ;q;0;1;1;13;q;1;0.8710319719994004;001;14131965;2019_May_21_1458;iat_vr;59.6018411052722;
6;NEGATIV;negativ;q;0;2;2;12;q;1;0.4556929610007501;001;14131965;2019_May_21_1458;iat_vr;59.6018411052722;
6;BLUME;Natur;p;0;3;3;2;p;1;0.7046311490012158;001;14131965;2019_May_21_1458;iat_vr;59.6018411052722;
6;SCHLIMM;negativ;q;0;4;4;10;q;1;0.503565556000467;001;14131965;2019_May_21_1458;iat_vr;59.6018411052722;
6;SCHWACH;negativ;q;0;5;5;14;q;1;0.7214625800006615;001;14131965;2019_May_21_1458;iat_vr;59.6018411052722;
6;KLEIDER;Gemacht;q;0;6;6;7;q;1;0.7054690869990736;001;14131965;2019_May_21_1458;iat_vr;59.6018411052722;
6;GEBÄUDE;Gemacht;q;0;7;7;5;q;1;0.5872670839999046;001;14131965;2019_May_21_1458;iat_vr;59.6018411052722;
6;SCHLECHT;negativ;q;0;8;8;11;q;1;0.4540107929988153;001;14131965;2019_May_21_1458;iat_vr;59.6018411052722;
6;STEIN;Natur;p;0;9;9;4;p;1;0.5858271529996273;001;14131965;2019_May_21_1458;iat_vr;59.6018411052722;
6;COMPUTER;Gemacht;q;0;10;10;8;q;1;0.5880625910012895;001;14131965;2019_May_21_1458;iat_vr;59.6018411052722;
6;EINWANDFREI;positiv;p;0;11;11;16;p;1;0.6379700010002125;001;14131965;2019_May_21_1458;iat_vr;59.6018411052722;
6;BAUM;Natur;p;0;12;12;0;p;1;0.5694376930005092;001;14131965;2019_May_21_1458;iat_vr;59.6018411052722;
6;POSITIV;positiv;p;0;13;13;18;p;1;0.5049978729985014;001;14131965;2019_May_21_1458;iat_vr;59.6018411052722;
6;GUT;positiv;p;0;14;14;19;p;1;0.48912236700016365;001;14131965;2019_May_21_1458;iat_vr;59.6018411052722;
6;HERVORRAGEND;positiv;p;0;15;15;17;p;1;0.5710653979986091;001;14131965;2019_May_21_1458;iat_vr;59.6018411052722;
6;WASSER;Natur;p;0;16;16;1;p;1;0.7681867680003052;001;14131965;2019_May_21_1458;iat_vr;59.6018411052722;
6;STADT;Gemacht;q;0;17;17;6;q;1;0.772410284000216;001;14131965;2019_May_21_1458;iat_vr;59.6018411052722;
6;AUSGEZEICHNET;positiv;p;0;18;18;15;p;1;0.6212228189997404;001;14131965;2019_May_21_1458;iat_vr;59.6018411052722;
6;TIER;Natur;p;0;19;19;3;p;1;0.5558210509989294;001;14131965;2019_May_21_1458;iat_vr;59.6018411052722;
;;;;;;;;;;;001;14131965;2019_May_21_1458;iat_vr;59.6018411052722;
7;NEGATIV;negativ;q;0;0;0;12;q;1;0.7882452009998815;001;14131965;2019_May_21_1458;iat_vr;59.6018411052722;
7;SCHÄDLICH;negativ;q;0;1;1;13;q;1;0.47124661700036086;001;14131965;2019_May_21_1458;iat_vr;59.6018411052722;
7;AUSGEZEICHNET;positiv;p;0;2;2;15;p;1;0.6216021509990242;001;14131965;2019_May_21_1458;iat_vr;59.6018411052722;
7;EINWANDFREI;positiv;p;0;3;3;16;p;1;0.6382719640005234;001;14131965;2019_May_21_1458;iat_vr;59.6018411052722;
7;BAUM;Natur;p;0;4;4;0;p;1;0.5708757180000248;001;14131965;2019_May_21_1458;iat_vr;59.6018411052722;
7;TIER;Natur;p;0;5;5;3;p;1;0.3730709110004682;001;14131965;2019_May_21_1458;iat_vr;59.6018411052722;
7;WASSER;Natur;p;0;6;6;1;p;1;0.46911511500002234;001;14131965;2019_May_21_1458;iat_vr;59.6018411052722;
7;SCHWACH;negativ;q;0;7;7;14;q;1;0.8048158729998249;001;14131965;2019_May_21_1458;iat_vr;59.6018411052722;
7;BLUME;Natur;p;0;8;8;2;p;1;0.5211468770012289;001;14131965;2019_May_21_1458;iat_vr;59.6018411052722;
7;LAMPE;Gemacht;q;0;9;9;9;q;1;0.6229381129996909;001;14131965;2019_May_21_1458;iat_vr;59.6018411052722;
7;GUT;positiv;p;0;10;10;19;p;1;0.5557769440001721;001;14131965;2019_May_21_1458;iat_vr;59.6018411052722;
7;HERVORRAGEND;positiv;p;0;11;11;17;p;1;0.5378709449996677;001;14131965;2019_May_21_1458;iat_vr;59.6018411052722;
7;COMPUTER;Gemacht;q;0;12;12;8;q;1;0.6551448150003125;001;14131965;2019_May_21_1458;iat_vr;59.6018411052722;
7;GEBÄUDE;Gemacht;q;0;13;13;5;q;1;0.5380652790008753;001;14131965;2019_May_21_1458;iat_vr;59.6018411052722;
7;STEIN;Natur;p;0;14;14;4;q;0;0.4883997989982163;001;14131965;2019_May_21_1458;iat_vr;59.6018411052722;
7;STADT;Gemacht;q;0;15;15;6;q;1;0.7367027740001504;001;14131965;2019_May_21_1458;iat_vr;59.6018411052722;
7;SCHLIMM;negativ;q;0;16;16;10;q;1;0.48536426899954677;001;14131965;2019_May_21_1458;iat_vr;59.6018411052722;
7;KLEIDER;Gemacht;q;0;17;17;7;q;1;0.805923507999978;001;14131965;2019_May_21_1458;iat_vr;59.6018411052722;
7;SCHLECHT;negativ;q;0;18;18;11;q;1;0.5556349409998802;001;14131965;2019_May_21_1458;iat_vr;59.6018411052722;
7;POSITIV;positiv;p;0;19;19;18;p;1;0.5547620780016587;001;14131965;2019_May_21_1458;iat_vr;59.6018411052722;
7;KLEIDER;Gemacht;q;1;0;20;7;q;1;0.7541397380009585;001;14131965;2019_May_21_1458;iat_vr;59.6018411052722;
7;GEBÄUDE;Gemacht;q;1;1;21;5;q;1;0.7716103509992536;001;14131965;2019_May_21_1458;iat_vr;59.6018411052722;
7;AUSGEZEICHNET;positiv;p;1;2;22;15;p;1;0.5537327139991248;001;14131965;2019_May_21_1458;iat_vr;59.6018411052722;
7;STADT;Gemacht;q;1;3;23;6;p;0;0.7893461170006049;001;14131965;2019_May_21_1458;iat_vr;59.6018411052722;
7;GUT;positiv;p;1;4;24;19;p;1;0.9880505019991688;001;14131965;2019_May_21_1458;iat_vr;59.6018411052722;
7;STEIN;Natur;p;1;5;25;4;p;1;0.8557638349993795;001;14131965;2019_May_21_1458;iat_vr;59.6018411052722;
7;SCHLECHT;negativ;q;1;6;26;11;q;1;0.32206792699980724;001;14131965;2019_May_21_1458;iat_vr;59.6018411052722;
7;BLUME;Natur;p;1;7;27;2;p;1;0.9560291210000287;001;14131965;2019_May_21_1458;iat_vr;59.6018411052722;
7;BAUM;Natur;p;1;8;28;0;p;1;1.2728206240008149;001;14131965;2019_May_21_1458;iat_vr;59.6018411052722;
7;SCHÄDLICH;negativ;q;1;9;29;13;q;1;0.6216559460008284;001;14131965;2019_May_21_1458;iat_vr;59.6018411052722;
7;LAMPE;Gemacht;q;1;10;30;9;q;1;1.105944630000522;001;14131965;2019_May_21_1458;iat_vr;59.6018411052722;
7;TIER;Natur;p;1;11;31;3;p;1;0.5730765260013868;001;14131965;2019_May_21_1458;iat_vr;59.6018411052722;
7;WASSER;Natur;p;1;12;32;1;p;1;0.48840246699910494;001;14131965;2019_May_21_1458;iat_vr;59.6018411052722;
7;POSITIV;positiv;p;1;13;33;18;p;1;0.5557742020009755;001;14131965;2019_May_21_1458;iat_vr;59.6018411052722;
7;SCHLIMM;negativ;q;1;14;34;10;q;1;0.6050558629995066;001;14131965;2019_May_21_1458;iat_vr;59.6018411052722;
7;EINWANDFREI;positiv;p;1;15;35;16;p;1;0.6539135599996371;001;14131965;2019_May_21_1458;iat_vr;59.6018411052722;
7;SCHWACH;negativ;q;1;16;36;14;q;1;0.6223333050002111;001;14131965;2019_May_21_1458;iat_vr;59.6018411052722;
7;NEGATIV;negativ;q;1;17;37;12;q;1;0.6522721109995473;001;14131965;2019_May_21_1458;iat_vr;59.6018411052722;
7;COMPUTER;Gemacht;q;1;18;38;8;q;1;0.7357971750006982;001;14131965;2019_May_21_1458;iat_vr;59.6018411052722;
7;HERVORRAGEND;positiv;p;1;19;39;17;p;1;0.6205090439998457;001;14131965;2019_May_21_1458;iat_vr;59.6018411052722;
;;;;;;;;;;;001;14131965;2019_May_21_1458;iat_vr;59.6018411052722;
