Block;Word;Category;CorrResp;trials.thisRepN;trials.thisTrialN;trials.thisN;trials.thisIndex;key_resp_2.keys;key_resp_2.corr;key_resp_2.rt;session;participant;date;expName;frameRate;
1;BLUME;Natur;q;0;0;0;2;q;1;1.204380355000012;001;17118597;2019_May_22_1026;iat_vr;60.01857803060023;
1;STEIN;Natur;q;0;1;1;4;q;1;0.8876481020000142;001;17118597;2019_May_22_1026;iat_vr;60.01857803060023;
1;TIER;Natur;q;0;2;2;3;q;1;1.1202749490000201;001;17118597;2019_May_22_1026;iat_vr;60.01857803060023;
1;LAMPE;Gemacht;p;0;3;3;9;p;1;0.6871269370000164;001;17118597;2019_May_22_1026;iat_vr;60.01857803060023;
1;STADT;Gemacht;p;0;4;4;6;p;1;0.75465559700001;001;17118597;2019_May_22_1026;iat_vr;60.01857803060023;
1;KLEIDER;Gemacht;p;0;5;5;7;p;1;1.1217987820000417;001;17118597;2019_May_22_1026;iat_vr;60.01857803060023;
1;BAUM;Natur;q;0;6;6;0;q;1;0.9890498839999964;001;17118597;2019_May_22_1026;iat_vr;60.01857803060023;
1;WASSER;Natur;q;0;7;7;1;q;1;1.6218299120000097;001;17118597;2019_May_22_1026;iat_vr;60.01857803060023;
1;COMPUTER;Gemacht;p;0;8;8;8;p;1;0.8377507940000442;001;17118597;2019_May_22_1026;iat_vr;60.01857803060023;
1;GEBÄUDE;Gemacht;p;0;9;9;5;p;1;0.9702168270000016;001;17118597;2019_May_22_1026;iat_vr;60.01857803060023;
1;TIER;Natur;q;1;0;10;3;q;1;0.7378262440000185;001;17118597;2019_May_22_1026;iat_vr;60.01857803060023;
1;BAUM;Natur;q;1;1;11;0;q;1;0.8230637359999946;001;17118597;2019_May_22_1026;iat_vr;60.01857803060023;
1;LAMPE;Gemacht;p;1;2;12;9;p;1;0.6706881530000146;001;17118597;2019_May_22_1026;iat_vr;60.01857803060023;
1;WASSER;Natur;q;1;3;13;1;q;1;0.7395632409999848;001;17118597;2019_May_22_1026;iat_vr;60.01857803060023;
1;STEIN;Natur;q;1;4;14;4;q;1;0.7558686130000183;001;17118597;2019_May_22_1026;iat_vr;60.01857803060023;
1;STADT;Gemacht;p;1;5;15;6;p;1;0.6559661630000164;001;17118597;2019_May_22_1026;iat_vr;60.01857803060023;
1;BLUME;Natur;q;1;6;16;2;q;1;0.7697376349999558;001;17118597;2019_May_22_1026;iat_vr;60.01857803060023;
1;COMPUTER;Gemacht;p;1;7;17;8;p;1;0.7209718230000135;001;17118597;2019_May_22_1026;iat_vr;60.01857803060023;
1;KLEIDER;Gemacht;p;1;8;18;7;p;1;0.6879414200000156;001;17118597;2019_May_22_1026;iat_vr;60.01857803060023;
1;GEBÄUDE;Gemacht;p;1;9;19;5;p;1;0.7860574180000413;001;17118597;2019_May_22_1026;iat_vr;60.01857803060023;
;;;;;;;;;;;001;17118597;2019_May_22_1026;iat_vr;60.01857803060023;
2;NEGATIV;negativ;q;0;0;0;2;q;1;1.455186287999993;001;17118597;2019_May_22_1026;iat_vr;60.01857803060023;
2;SCHWACH;negativ;q;0;1;1;4;q;1;0.9538828749999766;001;17118597;2019_May_22_1026;iat_vr;60.01857803060023;
2;EINWANDFREI;positiv;p;0;2;2;6;p;1;1.0550575789999925;001;17118597;2019_May_22_1026;iat_vr;60.01857803060023;
2;SCHÄDLICH;negativ;q;0;3;3;3;q;1;1.2035560909999958;001;17118597;2019_May_22_1026;iat_vr;60.01857803060023;
2;POSITIV;positiv;p;0;4;4;8;p;1;0.7723664369999597;001;17118597;2019_May_22_1026;iat_vr;60.01857803060023;
2;AUSGEZEICHNET;positiv;p;0;5;5;5;p;1;0.8381223009999985;001;17118597;2019_May_22_1026;iat_vr;60.01857803060023;
2;HERVORRAGEND;positiv;p;0;6;6;7;p;1;0.7714584510000009;001;17118597;2019_May_22_1026;iat_vr;60.01857803060023;
2;SCHLIMM;negativ;q;0;7;7;0;q;1;0.7055066530000431;001;17118597;2019_May_22_1026;iat_vr;60.01857803060023;
2;GUT;positiv;p;0;8;8;9;p;1;0.7060283280000021;001;17118597;2019_May_22_1026;iat_vr;60.01857803060023;
2;SCHLECHT;negativ;q;0;9;9;1;q;1;0.7216866790000154;001;17118597;2019_May_22_1026;iat_vr;60.01857803060023;
2;AUSGEZEICHNET;positiv;p;1;0;10;5;p;1;0.7040803240000173;001;17118597;2019_May_22_1026;iat_vr;60.01857803060023;
2;NEGATIV;negativ;q;1;1;11;2;q;1;0.7222564470000066;001;17118597;2019_May_22_1026;iat_vr;60.01857803060023;
2;GUT;positiv;p;1;2;12;9;p;1;0.6702784870000187;001;17118597;2019_May_22_1026;iat_vr;60.01857803060023;
2;HERVORRAGEND;positiv;p;1;3;13;7;p;1;0.7048468350000121;001;17118597;2019_May_22_1026;iat_vr;60.01857803060023;
2;SCHLIMM;negativ;q;1;4;14;0;q;1;0.6382660990000204;001;17118597;2019_May_22_1026;iat_vr;60.01857803060023;
2;EINWANDFREI;positiv;p;1;5;15;6;p;1;0.8549912390000145;001;17118597;2019_May_22_1026;iat_vr;60.01857803060023;
2;SCHÄDLICH;negativ;q;1;6;16;3;q;1;0.6386179369999923;001;17118597;2019_May_22_1026;iat_vr;60.01857803060023;
2;SCHLECHT;negativ;q;1;7;17;1;q;1;0.7381847739999898;001;17118597;2019_May_22_1026;iat_vr;60.01857803060023;
2;POSITIV;positiv;p;1;8;18;8;p;1;0.6717635100000052;001;17118597;2019_May_22_1026;iat_vr;60.01857803060023;
2;SCHWACH;negativ;q;1;9;19;4;q;1;0.7352516880000053;001;17118597;2019_May_22_1026;iat_vr;60.01857803060023;
;;;;;;;;;;;001;17118597;2019_May_22_1026;iat_vr;60.01857803060023;
3;SCHLECHT;negativ;q;0;0;0;1;q;1;0.9209433199999921;001;17118597;2019_May_22_1026;iat_vr;60.01857803060023;
3;STEIN;Natur;q;0;1;1;14;q;1;1.0060862269999689;001;17118597;2019_May_22_1026;iat_vr;60.01857803060023;
3;LAMPE;Gemacht;p;0;2;2;19;p;1;0.6389069699999936;001;17118597;2019_May_22_1026;iat_vr;60.01857803060023;
3;BLUME;Natur;q;0;3;3;12;q;1;0.7353795389999505;001;17118597;2019_May_22_1026;iat_vr;60.01857803060023;
3;SCHWACH;negativ;q;0;4;4;4;q;1;1.2217398950000415;001;17118597;2019_May_22_1026;iat_vr;60.01857803060023;
3;AUSGEZEICHNET;positiv;p;0;5;5;5;p;1;0.9875082600000269;001;17118597;2019_May_22_1026;iat_vr;60.01857803060023;
3;SCHÄDLICH;negativ;q;0;6;6;3;q;1;0.7048497920000045;001;17118597;2019_May_22_1026;iat_vr;60.01857803060023;
3;STADT;Gemacht;p;0;7;7;16;p;1;0.6561093230000097;001;17118597;2019_May_22_1026;iat_vr;60.01857803060023;
3;GEBÄUDE;Gemacht;p;0;8;8;15;p;1;0.5883368309999923;001;17118597;2019_May_22_1026;iat_vr;60.01857803060023;
3;BAUM;Natur;q;0;9;9;10;q;1;0.8357169120000094;001;17118597;2019_May_22_1026;iat_vr;60.01857803060023;
3;POSITIV;positiv;p;0;10;10;8;p;1;0.9226164359999984;001;17118597;2019_May_22_1026;iat_vr;60.01857803060023;
3;TIER;Natur;q;0;11;11;13;q;1;1.0065578640000012;001;17118597;2019_May_22_1026;iat_vr;60.01857803060023;
3;GUT;positiv;p;0;12;12;9;p;1;1.0207202619999975;001;17118597;2019_May_22_1026;iat_vr;60.01857803060023;
3;COMPUTER;Gemacht;p;0;13;13;18;p;1;0.6213519689999885;001;17118597;2019_May_22_1026;iat_vr;60.01857803060023;
3;NEGATIV;negativ;q;0;14;14;2;q;1;1.1716067220000355;001;17118597;2019_May_22_1026;iat_vr;60.01857803060023;
3;SCHLIMM;negativ;q;0;15;15;0;q;1;0.5892763840000157;001;17118597;2019_May_22_1026;iat_vr;60.01857803060023;
3;HERVORRAGEND;positiv;p;0;16;16;7;p;1;0.6376162489999615;001;17118597;2019_May_22_1026;iat_vr;60.01857803060023;
3;WASSER;Natur;q;0;17;17;11;q;1;0.6717126770000164;001;17118597;2019_May_22_1026;iat_vr;60.01857803060023;
3;KLEIDER;Gemacht;p;0;18;18;17;p;1;0.7017424260000098;001;17118597;2019_May_22_1026;iat_vr;60.01857803060023;
3;EINWANDFREI;positiv;p;0;19;19;6;p;1;0.9043575970000006;001;17118597;2019_May_22_1026;iat_vr;60.01857803060023;
;;;;;;;;;;;001;17118597;2019_May_22_1026;iat_vr;60.01857803060023;
4;BAUM;Natur;q;0;0;0;10;q;1;0.9383203509999589;001;17118597;2019_May_22_1026;iat_vr;60.01857803060023;
4;POSITIV;positiv;p;0;1;1;8;p;1;0.8520260760000156;001;17118597;2019_May_22_1026;iat_vr;60.01857803060023;
4;GEBÄUDE;Gemacht;p;0;2;2;15;p;1;0.9558954180000114;001;17118597;2019_May_22_1026;iat_vr;60.01857803060023;
4;SCHWACH;negativ;q;0;3;3;4;q;1;0.7557290290000083;001;17118597;2019_May_22_1026;iat_vr;60.01857803060023;
4;TIER;Natur;q;0;4;4;13;q;1;0.6723022040000046;001;17118597;2019_May_22_1026;iat_vr;60.01857803060023;
4;COMPUTER;Gemacht;p;0;5;5;18;p;1;0.5378934839999943;001;17118597;2019_May_22_1026;iat_vr;60.01857803060023;
4;AUSGEZEICHNET;positiv;p;0;6;6;5;p;1;0.7709626060000119;001;17118597;2019_May_22_1026;iat_vr;60.01857803060023;
4;WASSER;Natur;q;0;7;7;11;q;1;0.6392949979999685;001;17118597;2019_May_22_1026;iat_vr;60.01857803060023;
4;HERVORRAGEND;positiv;p;0;8;8;7;p;1;0.9546851669999796;001;17118597;2019_May_22_1026;iat_vr;60.01857803060023;
4;NEGATIV;negativ;q;0;9;9;2;q;1;0.5885874709999825;001;17118597;2019_May_22_1026;iat_vr;60.01857803060023;
4;SCHLIMM;negativ;q;0;10;10;0;q;1;0.6045919229999868;001;17118597;2019_May_22_1026;iat_vr;60.01857803060023;
4;LAMPE;Gemacht;p;0;11;11;19;p;1;0.5894503439999994;001;17118597;2019_May_22_1026;iat_vr;60.01857803060023;
4;SCHÄDLICH;negativ;q;0;12;12;3;q;1;0.6385300590000043;001;17118597;2019_May_22_1026;iat_vr;60.01857803060023;
4;SCHLECHT;negativ;q;0;13;13;1;q;1;0.6385166040000172;001;17118597;2019_May_22_1026;iat_vr;60.01857803060023;
4;BLUME;Natur;q;0;14;14;12;q;1;0.6390663150000364;001;17118597;2019_May_22_1026;iat_vr;60.01857803060023;
4;GUT;positiv;p;0;15;15;9;p;1;1.0715933039999754;001;17118597;2019_May_22_1026;iat_vr;60.01857803060023;
4;EINWANDFREI;positiv;p;0;16;16;6;p;1;0.5504652150000311;001;17118597;2019_May_22_1026;iat_vr;60.01857803060023;
4;KLEIDER;Gemacht;p;0;17;17;17;p;1;0.9887358980000158;001;17118597;2019_May_22_1026;iat_vr;60.01857803060023;
4;STEIN;Natur;q;0;18;18;14;p;0;0.4892309190000219;001;17118597;2019_May_22_1026;iat_vr;60.01857803060023;
4;STADT;Gemacht;p;0;19;19;16;p;1;0.8225971439999853;001;17118597;2019_May_22_1026;iat_vr;60.01857803060023;
4;STEIN;Natur;q;1;0;20;14;q;1;0.8227194890000078;001;17118597;2019_May_22_1026;iat_vr;60.01857803060023;
4;HERVORRAGEND;positiv;p;1;1;21;7;p;1;0.6883970790000262;001;17118597;2019_May_22_1026;iat_vr;60.01857803060023;
4;LAMPE;Gemacht;p;1;2;22;19;p;1;0.9394379689999823;001;17118597;2019_May_22_1026;iat_vr;60.01857803060023;
4;NEGATIV;negativ;q;1;3;23;2;q;1;0.6708273920000352;001;17118597;2019_May_22_1026;iat_vr;60.01857803060023;
4;EINWANDFREI;positiv;p;1;4;24;6;p;1;0.7179287490000092;001;17118597;2019_May_22_1026;iat_vr;60.01857803060023;
4;SCHÄDLICH;negativ;q;1;5;25;3;q;1;0.5707620169999927;001;17118597;2019_May_22_1026;iat_vr;60.01857803060023;
4;AUSGEZEICHNET;positiv;p;1;6;26;5;p;1;0.9372186340000326;001;17118597;2019_May_22_1026;iat_vr;60.01857803060023;
4;KLEIDER;Gemacht;p;1;7;27;17;p;1;0.6720219800000109;001;17118597;2019_May_22_1026;iat_vr;60.01857803060023;
4;WASSER;Natur;q;1;8;28;11;q;1;0.5556383519999599;001;17118597;2019_May_22_1026;iat_vr;60.01857803060023;
4;COMPUTER;Gemacht;p;1;9;29;18;p;1;0.6552028160000418;001;17118597;2019_May_22_1026;iat_vr;60.01857803060023;
4;POSITIV;positiv;p;1;10;30;8;p;1;1.0556076539999708;001;17118597;2019_May_22_1026;iat_vr;60.01857803060023;
4;BAUM;Natur;q;1;11;31;10;q;1;0.8730782239999826;001;17118597;2019_May_22_1026;iat_vr;60.01857803060023;
4;SCHWACH;negativ;q;1;12;32;4;q;1;0.5387112350000507;001;17118597;2019_May_22_1026;iat_vr;60.01857803060023;
4;STADT;Gemacht;p;1;13;33;16;p;1;0.5885623020000139;001;17118597;2019_May_22_1026;iat_vr;60.01857803060023;
4;TIER;Natur;q;1;14;34;13;q;1;0.6209216870000205;001;17118597;2019_May_22_1026;iat_vr;60.01857803060023;
4;GEBÄUDE;Gemacht;p;1;15;35;15;p;1;0.6351166700000022;001;17118597;2019_May_22_1026;iat_vr;60.01857803060023;
4;SCHLIMM;negativ;q;1;16;36;0;q;1;1.4725725910000165;001;17118597;2019_May_22_1026;iat_vr;60.01857803060023;
4;BLUME;Natur;q;1;17;37;12;q;1;0.5724987070000225;001;17118597;2019_May_22_1026;iat_vr;60.01857803060023;
4;SCHLECHT;negativ;q;1;18;38;1;q;1;0.6719568809999714;001;17118597;2019_May_22_1026;iat_vr;60.01857803060023;
4;GUT;positiv;p;1;19;39;9;p;1;0.8045285050000075;001;17118597;2019_May_22_1026;iat_vr;60.01857803060023;
;;;;;;;;;;;001;17118597;2019_May_22_1026;iat_vr;60.01857803060023;
5;KLEIDER;Gemacht;q;0;0;0;7;q;1;0.8215362949999871;001;17118597;2019_May_22_1026;iat_vr;60.01857803060023;
5;BAUM;Natur;p;0;1;1;0;p;1;0.5730253389999689;001;17118597;2019_May_22_1026;iat_vr;60.01857803060023;
5;TIER;Natur;p;0;2;2;3;p;1;0.5006989719998955;001;17118597;2019_May_22_1026;iat_vr;60.01857803060023;
5;LAMPE;Gemacht;q;0;3;3;9;q;1;0.6217817909999894;001;17118597;2019_May_22_1026;iat_vr;60.01857803060023;
5;STADT;Gemacht;q;0;4;4;6;q;1;0.6393133779999971;001;17118597;2019_May_22_1026;iat_vr;60.01857803060023;
5;WASSER;Natur;p;0;5;5;1;p;1;0.5390303350000067;001;17118597;2019_May_22_1026;iat_vr;60.01857803060023;
5;BLUME;Natur;p;0;6;6;2;p;1;0.718984927000065;001;17118597;2019_May_22_1026;iat_vr;60.01857803060023;
5;COMPUTER;Gemacht;q;0;7;7;8;q;1;0.505359748999922;001;17118597;2019_May_22_1026;iat_vr;60.01857803060023;
5;GEBÄUDE;Gemacht;q;0;8;8;5;q;1;0.4887833180000598;001;17118597;2019_May_22_1026;iat_vr;60.01857803060023;
5;STEIN;Natur;p;0;9;9;4;p;1;0.5557107900000346;001;17118597;2019_May_22_1026;iat_vr;60.01857803060023;
5;STADT;Gemacht;q;1;0;10;6;q;1;0.5551684289999912;001;17118597;2019_May_22_1026;iat_vr;60.01857803060023;
5;GEBÄUDE;Gemacht;q;1;1;11;5;p;0;0.6055733729999702;001;17118597;2019_May_22_1026;iat_vr;60.01857803060023;
5;TIER;Natur;p;1;2;12;3;p;1;0.7728871179999715;001;17118597;2019_May_22_1026;iat_vr;60.01857803060023;
5;COMPUTER;Gemacht;q;1;3;13;8;q;1;0.5384988890000386;001;17118597;2019_May_22_1026;iat_vr;60.01857803060023;
5;BLUME;Natur;p;1;4;14;2;p;1;0.9226706360000207;001;17118597;2019_May_22_1026;iat_vr;60.01857803060023;
5;LAMPE;Gemacht;q;1;5;15;9;q;1;0.6389960239999937;001;17118597;2019_May_22_1026;iat_vr;60.01857803060023;
5;WASSER;Natur;p;1;6;16;1;p;1;0.5889404369999056;001;17118597;2019_May_22_1026;iat_vr;60.01857803060023;
5;STEIN;Natur;p;1;7;17;4;p;1;0.6563196959999686;001;17118597;2019_May_22_1026;iat_vr;60.01857803060023;
5;KLEIDER;Gemacht;q;1;8;18;7;q;1;1.1055429649999269;001;17118597;2019_May_22_1026;iat_vr;60.01857803060023;
5;BAUM;Natur;p;1;9;19;0;p;1;0.6398890850000498;001;17118597;2019_May_22_1026;iat_vr;60.01857803060023;
;;;;;;;;;;;001;17118597;2019_May_22_1026;iat_vr;60.01857803060023;
6;SCHWACH;negativ;q;0;0;0;14;q;1;0.939415279000059;001;17118597;2019_May_22_1026;iat_vr;60.01857803060023;
6;SCHLECHT;negativ;q;0;1;1;11;q;1;0.4890776550000737;001;17118597;2019_May_22_1026;iat_vr;60.01857803060023;
6;SCHLIMM;negativ;q;0;2;2;10;q;1;0.5718732960000352;001;17118597;2019_May_22_1026;iat_vr;60.01857803060023;
6;NEGATIV;negativ;q;0;3;3;12;q;1;0.6555083560000412;001;17118597;2019_May_22_1026;iat_vr;60.01857803060023;
6;HERVORRAGEND;positiv;p;0;4;4;17;p;1;1.1713952520000248;001;17118597;2019_May_22_1026;iat_vr;60.01857803060023;
6;WASSER;Natur;p;0;5;5;1;p;1;0.9727056089999451;001;17118597;2019_May_22_1026;iat_vr;60.01857803060023;
6;STADT;Gemacht;q;0;6;6;6;q;1;0.5061068119999845;001;17118597;2019_May_22_1026;iat_vr;60.01857803060023;
6;BAUM;Natur;p;0;7;7;0;p;1;0.5210864509999737;001;17118597;2019_May_22_1026;iat_vr;60.01857803060023;
6;POSITIV;positiv;p;0;8;8;18;p;1;0.6387189380000109;001;17118597;2019_May_22_1026;iat_vr;60.01857803060023;
6;GUT;positiv;p;0;9;9;19;p;1;0.5220285579999882;001;17118597;2019_May_22_1026;iat_vr;60.01857803060023;
6;EINWANDFREI;positiv;p;0;10;10;16;p;1;0.5710860120000234;001;17118597;2019_May_22_1026;iat_vr;60.01857803060023;
6;LAMPE;Gemacht;q;0;11;11;9;q;1;0.5058892810000089;001;17118597;2019_May_22_1026;iat_vr;60.01857803060023;
6;SCHÄDLICH;negativ;q;0;12;12;13;q;1;1.0555321439999261;001;17118597;2019_May_22_1026;iat_vr;60.01857803060023;
6;AUSGEZEICHNET;positiv;p;0;13;13;15;p;1;0.9715230760000395;001;17118597;2019_May_22_1026;iat_vr;60.01857803060023;
6;COMPUTER;Gemacht;q;0;14;14;8;q;1;0.688493554000047;001;17118597;2019_May_22_1026;iat_vr;60.01857803060023;
6;TIER;Natur;p;0;15;15;3;p;1;0.7044330530000025;001;17118597;2019_May_22_1026;iat_vr;60.01857803060023;
6;KLEIDER;Gemacht;q;0;16;16;7;q;1;0.5886364850000518;001;17118597;2019_May_22_1026;iat_vr;60.01857803060023;
6;STEIN;Natur;p;0;17;17;4;p;1;0.6891667840000082;001;17118597;2019_May_22_1026;iat_vr;60.01857803060023;
6;GEBÄUDE;Gemacht;q;0;18;18;5;q;1;0.5389252749999969;001;17118597;2019_May_22_1026;iat_vr;60.01857803060023;
6;BLUME;Natur;p;0;19;19;2;p;1;0.5225314549999212;001;17118597;2019_May_22_1026;iat_vr;60.01857803060023;
;;;;;;;;;;;001;17118597;2019_May_22_1026;iat_vr;60.01857803060023;
7;BLUME;Natur;p;0;0;0;2;p;1;0.655918202999942;001;17118597;2019_May_22_1026;iat_vr;60.01857803060023;
7;SCHLIMM;negativ;q;0;1;1;10;q;1;0.5723125399999844;001;17118597;2019_May_22_1026;iat_vr;60.01857803060023;
7;STADT;Gemacht;q;0;2;2;6;q;1;0.6060954519999768;001;17118597;2019_May_22_1026;iat_vr;60.01857803060023;
7;SCHÄDLICH;negativ;q;0;3;3;13;q;1;0.6375413780000372;001;17118597;2019_May_22_1026;iat_vr;60.01857803060023;
7;COMPUTER;Gemacht;q;0;4;4;8;q;1;0.5889960340000471;001;17118597;2019_May_22_1026;iat_vr;60.01857803060023;
7;WASSER;Natur;p;0;5;5;1;p;1;0.48894733199995244;001;17118597;2019_May_22_1026;iat_vr;60.01857803060023;
7;LAMPE;Gemacht;q;0;6;6;9;q;1;0.6227516469999728;001;17118597;2019_May_22_1026;iat_vr;60.01857803060023;
7;TIER;Natur;p;0;7;7;3;p;1;0.45615771400002814;001;17118597;2019_May_22_1026;iat_vr;60.01857803060023;
7;SCHLECHT;negativ;q;0;8;8;11;q;1;0.6052336750000222;001;17118597;2019_May_22_1026;iat_vr;60.01857803060023;
7;NEGATIV;negativ;q;0;9;9;12;q;1;0.45544003599991356;001;17118597;2019_May_22_1026;iat_vr;60.01857803060023;
7;GUT;positiv;p;0;10;10;19;p;1;0.7542082049999408;001;17118597;2019_May_22_1026;iat_vr;60.01857803060023;
7;GEBÄUDE;Gemacht;q;0;11;11;5;q;1;0.6057820290000109;001;17118597;2019_May_22_1026;iat_vr;60.01857803060023;
7;KLEIDER;Gemacht;q;0;12;12;7;q;1;0.6059365940000134;001;17118597;2019_May_22_1026;iat_vr;60.01857803060023;
7;STEIN;Natur;p;0;13;13;4;p;1;0.5226088109999409;001;17118597;2019_May_22_1026;iat_vr;60.01857803060023;
7;HERVORRAGEND;positiv;p;0;14;14;17;p;1;0.7708701210000299;001;17118597;2019_May_22_1026;iat_vr;60.01857803060023;
7;POSITIV;positiv;p;0;15;15;18;p;1;0.9715422419999413;001;17118597;2019_May_22_1026;iat_vr;60.01857803060023;
7;SCHWACH;negativ;q;0;16;16;14;q;1;0.5723422259999325;001;17118597;2019_May_22_1026;iat_vr;60.01857803060023;
7;AUSGEZEICHNET;positiv;p;0;17;17;15;p;1;0.5205103689999078;001;17118597;2019_May_22_1026;iat_vr;60.01857803060023;
7;BAUM;Natur;p;0;18;18;0;p;1;0.4887338629999931;001;17118597;2019_May_22_1026;iat_vr;60.01857803060023;
7;EINWANDFREI;positiv;p;0;19;19;16;p;1;0.7216345819999788;001;17118597;2019_May_22_1026;iat_vr;60.01857803060023;
7;NEGATIV;negativ;q;1;0;20;12;q;1;0.5716340730000411;001;17118597;2019_May_22_1026;iat_vr;60.01857803060023;
7;SCHÄDLICH;negativ;q;1;1;21;13;q;1;0.5551979829999709;001;17118597;2019_May_22_1026;iat_vr;60.01857803060023;
7;SCHWACH;negativ;q;1;2;22;14;q;1;0.45549089799999365;001;17118597;2019_May_22_1026;iat_vr;60.01857803060023;
7;COMPUTER;Gemacht;q;1;3;23;8;q;1;0.521134570000072;001;17118597;2019_May_22_1026;iat_vr;60.01857803060023;
7;BLUME;Natur;p;1;4;24;2;p;1;0.4876602899998943;001;17118597;2019_May_22_1026;iat_vr;60.01857803060023;
7;STEIN;Natur;p;1;5;25;4;p;1;0.5182509090000167;001;17118597;2019_May_22_1026;iat_vr;60.01857803060023;
7;WASSER;Natur;p;1;6;26;1;p;1;0.5390051240000275;001;17118597;2019_May_22_1026;iat_vr;60.01857803060023;
7;SCHLIMM;negativ;q;1;7;27;10;q;1;0.5387805740000431;001;17118597;2019_May_22_1026;iat_vr;60.01857803060023;
7;BAUM;Natur;p;1;8;28;0;p;1;0.5563074670000105;001;17118597;2019_May_22_1026;iat_vr;60.01857803060023;
7;SCHLECHT;negativ;q;1;9;29;11;q;1;0.5682541829999082;001;17118597;2019_May_22_1026;iat_vr;60.01857803060023;
7;HERVORRAGEND;positiv;p;1;10;30;17;p;1;0.5344542359999878;001;17118597;2019_May_22_1026;iat_vr;60.01857803060023;
7;AUSGEZEICHNET;positiv;p;1;11;31;15;p;1;0.6203256799999508;001;17118597;2019_May_22_1026;iat_vr;60.01857803060023;
7;POSITIV;positiv;p;1;12;32;18;p;1;0.6383919539999852;001;17118597;2019_May_22_1026;iat_vr;60.01857803060023;
7;LAMPE;Gemacht;q;1;13;33;9;q;1;0.5391842210000277;001;17118597;2019_May_22_1026;iat_vr;60.01857803060023;
7;KLEIDER;Gemacht;q;1;14;34;7;q;1;0.5222521950000782;001;17118597;2019_May_22_1026;iat_vr;60.01857803060023;
7;GUT;positiv;p;1;15;35;19;p;1;0.8721900650000407;001;17118597;2019_May_22_1026;iat_vr;60.01857803060023;
7;TIER;Natur;p;1;16;36;3;p;1;0.6036544470000536;001;17118597;2019_May_22_1026;iat_vr;60.01857803060023;
7;STADT;Gemacht;q;1;17;37;6;q;1;0.48869224900010977;001;17118597;2019_May_22_1026;iat_vr;60.01857803060023;
7;GEBÄUDE;Gemacht;q;1;18;38;5;q;1;0.6016823219999878;001;17118597;2019_May_22_1026;iat_vr;60.01857803060023;
7;EINWANDFREI;positiv;p;1;19;39;16;p;1;0.6218365759999642;001;17118597;2019_May_22_1026;iat_vr;60.01857803060023;
;;;;;;;;;;;001;17118597;2019_May_22_1026;iat_vr;60.01857803060023;
