Block;Word;Category;CorrResp;trials.thisRepN;trials.thisTrialN;trials.thisN;trials.thisIndex;key_resp_2.keys;key_resp_2.corr;key_resp_2.rt;session;participant;date;expName;frameRate;
1;STEIN;Natur;q;0;0;0;4;p;0;3.191770099999985;001;ARDS53;2019_Nov_25_0903;iat_vr;60.022640540066455;
1;BAUM;Natur;q;0;1;1;0;q;1;4.4068929000000026;001;ARDS53;2019_Nov_25_0903;iat_vr;60.022640540066455;
1;WASSER;Natur;q;0;2;2;1;q;1;0.8561787999999524;001;ARDS53;2019_Nov_25_0903;iat_vr;60.022640540066455;
1;KLEIDER;Gemacht;p;0;3;3;7;p;1;1.0281155000000126;001;ARDS53;2019_Nov_25_0903;iat_vr;60.022640540066455;
1;STADT;Gemacht;p;0;4;4;6;p;1;1.1335578999999143;001;ARDS53;2019_Nov_25_0903;iat_vr;60.022640540066455;
1;COMPUTER;Gemacht;p;0;5;5;8;p;1;0.8551835000000665;001;ARDS53;2019_Nov_25_0903;iat_vr;60.022640540066455;
1;BLUME;Natur;q;0;6;6;2;q;1;0.8314327999999023;001;ARDS53;2019_Nov_25_0903;iat_vr;60.022640540066455;
1;TIER;Natur;q;0;7;7;3;q;1;1.0034700999999586;001;ARDS53;2019_Nov_25_0903;iat_vr;60.022640540066455;
1;LAMPE;Gemacht;p;0;8;8;9;p;1;0.8827575000000252;001;ARDS53;2019_Nov_25_0903;iat_vr;60.022640540066455;
1;GEBÄUDE;Gemacht;p;0;9;9;5;p;1;0.9776352000001225;001;ARDS53;2019_Nov_25_0903;iat_vr;60.022640540066455;
1;BLUME;Natur;q;1;0;10;2;q;1;1.1334942000000865;001;ARDS53;2019_Nov_25_0903;iat_vr;60.022640540066455;
1;KLEIDER;Gemacht;p;1;1;11;7;p;1;0.9193481999998312;001;ARDS53;2019_Nov_25_0903;iat_vr;60.022640540066455;
1;COMPUTER;Gemacht;p;1;2;12;8;p;1;1.117995399999927;001;ARDS53;2019_Nov_25_0903;iat_vr;60.022640540066455;
1;WASSER;Natur;q;1;3;13;1;q;1;0.9818694999999025;001;ARDS53;2019_Nov_25_0903;iat_vr;60.022640540066455;
1;LAMPE;Gemacht;p;1;4;14;9;p;1;0.9153014000000894;001;ARDS53;2019_Nov_25_0903;iat_vr;60.022640540066455;
1;GEBÄUDE;Gemacht;p;1;5;15;5;p;1;1.0969352999998137;001;ARDS53;2019_Nov_25_0903;iat_vr;60.022640540066455;
1;STADT;Gemacht;p;1;6;16;6;p;1;0.9153039999998782;001;ARDS53;2019_Nov_25_0903;iat_vr;60.022640540066455;
1;TIER;Natur;q;1;7;17;3;q;1;0.9986026999999922;001;ARDS53;2019_Nov_25_0903;iat_vr;60.022640540066455;
1;STEIN;Natur;q;1;8;18;4;q;1;1.2321104000000105;001;ARDS53;2019_Nov_25_0903;iat_vr;60.022640540066455;
1;BAUM;Natur;q;1;9;19;0;q;1;0.9187305000000379;001;ARDS53;2019_Nov_25_0903;iat_vr;60.022640540066455;
;;;;;;;;;;;001;ARDS53;2019_Nov_25_0903;iat_vr;60.022640540066455;
2;POSITIV;positiv;p;0;0;0;8;q;0;2.9102777999999034;001;ARDS53;2019_Nov_25_0903;iat_vr;60.022640540066455;
2;SCHÄDLICH;negativ;q;0;1;1;3;p;0;2.761390899999924;001;ARDS53;2019_Nov_25_0903;iat_vr;60.022640540066455;
2;SCHLIMM;negativ;q;0;2;2;0;q;1;10.162199200000032;001;ARDS53;2019_Nov_25_0903;iat_vr;60.022640540066455;
2;SCHWACH;negativ;q;0;3;3;4;p;0;2.951977599999964;001;ARDS53;2019_Nov_25_0903;iat_vr;60.022640540066455;
2;EINWANDFREI;positiv;p;0;4;4;6;q;0;1.478386399999863;001;ARDS53;2019_Nov_25_0903;iat_vr;60.022640540066455;
2;SCHLECHT;negativ;q;0;5;5;1;q;1;3.9616203000000496;001;ARDS53;2019_Nov_25_0903;iat_vr;60.022640540066455;
2;GUT;positiv;p;0;6;6;9;p;1;1.0484518999999182;001;ARDS53;2019_Nov_25_0903;iat_vr;60.022640540066455;
2;NEGATIV;negativ;q;0;7;7;2;q;1;1.1473419999999805;001;ARDS53;2019_Nov_25_0903;iat_vr;60.022640540066455;
2;AUSGEZEICHNET;positiv;p;0;8;8;5;p;1;2.640088900000137;001;ARDS53;2019_Nov_25_0903;iat_vr;60.022640540066455;
2;HERVORRAGEND;positiv;p;0;9;9;7;p;1;0.8946718000001965;001;ARDS53;2019_Nov_25_0903;iat_vr;60.022640540066455;
2;GUT;positiv;p;1;0;10;9;p;1;0.7101286000001892;001;ARDS53;2019_Nov_25_0903;iat_vr;60.022640540066455;
2;NEGATIV;negativ;q;1;1;11;2;q;1;0.7520790999999463;001;ARDS53;2019_Nov_25_0903;iat_vr;60.022640540066455;
2;SCHÄDLICH;negativ;q;1;2;12;3;q;1;0.8348650000000362;001;ARDS53;2019_Nov_25_0903;iat_vr;60.022640540066455;
2;POSITIV;positiv;p;1;3;13;8;p;1;0.751355999999987;001;ARDS53;2019_Nov_25_0903;iat_vr;60.022640540066455;
2;AUSGEZEICHNET;positiv;p;1;4;14;5;q;0;2.111198100000138;001;ARDS53;2019_Nov_25_0903;iat_vr;60.022640540066455;
2;SCHWACH;negativ;q;1;5;15;4;p;0;5.83057070000018;001;ARDS53;2019_Nov_25_0903;iat_vr;60.022640540066455;
2;HERVORRAGEND;positiv;p;1;6;16;7;p;1;0.8090765999997984;001;ARDS53;2019_Nov_25_0903;iat_vr;60.022640540066455;
2;EINWANDFREI;positiv;p;1;7;17;6;p;1;2.045957699999917;001;ARDS53;2019_Nov_25_0903;iat_vr;60.022640540066455;
2;SCHLECHT;negativ;q;1;8;18;1;q;1;0.8983272000000397;001;ARDS53;2019_Nov_25_0903;iat_vr;60.022640540066455;
2;SCHLIMM;negativ;q;1;9;19;0;q;1;0.7423807000000124;001;ARDS53;2019_Nov_25_0903;iat_vr;60.022640540066455;
;;;;;;;;;;;001;ARDS53;2019_Nov_25_0903;iat_vr;60.022640540066455;
3;STEIN;Natur;q;0;0;0;14;q;1;3.0749530000000505;001;ARDS53;2019_Nov_25_0903;iat_vr;60.022640540066455;
3;AUSGEZEICHNET;positiv;p;0;1;1;5;q;0;3.193133499999931;001;ARDS53;2019_Nov_25_0903;iat_vr;60.022640540066455;
3;BLUME;Natur;q;0;2;2;12;q;1;2.3627814999999828;001;ARDS53;2019_Nov_25_0903;iat_vr;60.022640540066455;
3;SCHLIMM;negativ;q;0;3;3;0;q;1;1.0605819999998403;001;ARDS53;2019_Nov_25_0903;iat_vr;60.022640540066455;
3;POSITIV;positiv;p;0;4;4;8;p;1;0.9485723000000235;001;ARDS53;2019_Nov_25_0903;iat_vr;60.022640540066455;
3;HERVORRAGEND;positiv;p;0;5;5;7;p;1;1.7795320000000174;001;ARDS53;2019_Nov_25_0903;iat_vr;60.022640540066455;
3;SCHÄDLICH;negativ;q;0;6;6;3;p;0;2.7325237000000016;001;ARDS53;2019_Nov_25_0903;iat_vr;60.022640540066455;
3;TIER;Natur;q;0;7;7;13;q;1;2.502535600000101;001;ARDS53;2019_Nov_25_0903;iat_vr;60.022640540066455;
3;BAUM;Natur;q;0;8;8;10;q;1;0.7149967999998807;001;ARDS53;2019_Nov_25_0903;iat_vr;60.022640540066455;
3;WASSER;Natur;q;0;9;9;11;q;1;0.5638354000000163;001;ARDS53;2019_Nov_25_0903;iat_vr;60.022640540066455;
3;SCHLECHT;negativ;q;0;10;10;1;q;1;1.3017691000000013;001;ARDS53;2019_Nov_25_0903;iat_vr;60.022640540066455;
3;LAMPE;Gemacht;p;0;11;11;19;p;1;1.2311952999998539;001;ARDS53;2019_Nov_25_0903;iat_vr;60.022640540066455;
3;SCHWACH;negativ;q;0;12;12;4;q;1;4.793830099999923;001;ARDS53;2019_Nov_25_0903;iat_vr;60.022640540066455;
3;GUT;positiv;p;0;13;13;9;p;1;0.7661000000000513;001;ARDS53;2019_Nov_25_0903;iat_vr;60.022640540066455;
3;GEBÄUDE;Gemacht;p;0;14;14;15;p;1;3.5314169000000675;001;ARDS53;2019_Nov_25_0903;iat_vr;60.022640540066455;
3;NEGATIV;negativ;q;0;15;15;2;q;1;2.464199100000087;001;ARDS53;2019_Nov_25_0903;iat_vr;60.022640540066455;
3;KLEIDER;Gemacht;p;0;16;16;17;p;1;1.2134891999999127;001;ARDS53;2019_Nov_25_0903;iat_vr;60.022640540066455;
3;EINWANDFREI;positiv;p;0;17;17;6;p;1;0.995933100000002;001;ARDS53;2019_Nov_25_0903;iat_vr;60.022640540066455;
3;COMPUTER;Gemacht;p;0;18;18;18;p;1;1.360834599999862;001;ARDS53;2019_Nov_25_0903;iat_vr;60.022640540066455;
3;STADT;Gemacht;p;0;19;19;16;p;1;0.8638644000000113;001;ARDS53;2019_Nov_25_0903;iat_vr;60.022640540066455;
;;;;;;;;;;;001;ARDS53;2019_Nov_25_0903;iat_vr;60.022640540066455;
4;SCHWACH;negativ;q;0;0;0;4;q;1;1.6683634000000893;001;ARDS53;2019_Nov_25_0903;iat_vr;60.022640540066455;
4;POSITIV;positiv;p;0;1;1;8;p;1;1.3135714999998527;001;ARDS53;2019_Nov_25_0903;iat_vr;60.022640540066455;
4;STADT;Gemacht;p;0;2;2;16;p;1;1.2784773000000769;001;ARDS53;2019_Nov_25_0903;iat_vr;60.022640540066455;
4;COMPUTER;Gemacht;p;0;3;3;18;p;1;0.7464578000001438;001;ARDS53;2019_Nov_25_0903;iat_vr;60.022640540066455;
4;SCHLECHT;negativ;q;0;4;4;1;q;1;1.0042865999998867;001;ARDS53;2019_Nov_25_0903;iat_vr;60.022640540066455;
4;HERVORRAGEND;positiv;p;0;5;5;7;p;1;1.9626977000000352;001;ARDS53;2019_Nov_25_0903;iat_vr;60.022640540066455;
4;NEGATIV;negativ;q;0;6;6;2;q;1;0.7134514999997918;001;ARDS53;2019_Nov_25_0903;iat_vr;60.022640540066455;
4;KLEIDER;Gemacht;p;0;7;7;17;p;1;0.6964382000001024;001;ARDS53;2019_Nov_25_0903;iat_vr;60.022640540066455;
4;EINWANDFREI;positiv;p;0;8;8;6;p;1;1.9613745999999992;001;ARDS53;2019_Nov_25_0903;iat_vr;60.022640540066455;
4;WASSER;Natur;q;0;9;9;11;q;1;1.2470705000000635;001;ARDS53;2019_Nov_25_0903;iat_vr;60.022640540066455;
4;SCHLIMM;negativ;q;0;10;10;0;q;1;1.3475222999998095;001;ARDS53;2019_Nov_25_0903;iat_vr;60.022640540066455;
4;GUT;positiv;p;0;11;11;9;p;1;0.832523300000048;001;ARDS53;2019_Nov_25_0903;iat_vr;60.022640540066455;
4;TIER;Natur;q;0;12;12;13;q;1;1.116718100000071;001;ARDS53;2019_Nov_25_0903;iat_vr;60.022640540066455;
4;SCHÄDLICH;negativ;q;0;13;13;3;q;1;1.197096300000112;001;ARDS53;2019_Nov_25_0903;iat_vr;60.022640540066455;
4;BAUM;Natur;q;0;14;14;10;q;1;0.7157472999999754;001;ARDS53;2019_Nov_25_0903;iat_vr;60.022640540066455;
4;STEIN;Natur;q;0;15;15;14;q;1;0.7485166999999819;001;ARDS53;2019_Nov_25_0903;iat_vr;60.022640540066455;
4;LAMPE;Gemacht;p;0;16;16;19;p;1;0.9152844000000186;001;ARDS53;2019_Nov_25_0903;iat_vr;60.022640540066455;
4;BLUME;Natur;q;0;17;17;12;q;1;0.7475954999999885;001;ARDS53;2019_Nov_25_0903;iat_vr;60.022640540066455;
4;AUSGEZEICHNET;positiv;p;0;18;18;5;p;1;2.0997906000000057;001;ARDS53;2019_Nov_25_0903;iat_vr;60.022640540066455;
4;GEBÄUDE;Gemacht;p;0;19;19;15;p;1;1.1833126000001357;001;ARDS53;2019_Nov_25_0903;iat_vr;60.022640540066455;
4;BLUME;Natur;q;1;0;20;12;q;1;0.7978987999999845;001;ARDS53;2019_Nov_25_0903;iat_vr;60.022640540066455;
4;EINWANDFREI;positiv;p;1;1;21;6;p;1;1.7800457000000733;001;ARDS53;2019_Nov_25_0903;iat_vr;60.022640540066455;
4;NEGATIV;negativ;q;1;2;22;2;q;1;1.3025284000000283;001;ARDS53;2019_Nov_25_0903;iat_vr;60.022640540066455;
4;SCHLECHT;negativ;q;1;3;23;1;q;1;0.9317905000000337;001;ARDS53;2019_Nov_25_0903;iat_vr;60.022640540066455;
4;SCHÄDLICH;negativ;q;1;4;24;3;q;1;0.8449930000001586;001;ARDS53;2019_Nov_25_0903;iat_vr;60.022640540066455;
4;WASSER;Natur;q;1;5;25;11;q;1;0.815858500000104;001;ARDS53;2019_Nov_25_0903;iat_vr;60.022640540066455;
4;HERVORRAGEND;positiv;p;1;6;26;7;p;1;1.1124125999999706;001;ARDS53;2019_Nov_25_0903;iat_vr;60.022640540066455;
4;GUT;positiv;p;1;7;27;9;p;1;0.9483153999999558;001;ARDS53;2019_Nov_25_0903;iat_vr;60.022640540066455;
4;STADT;Gemacht;p;1;8;28;16;p;1;1.2635494999999537;001;ARDS53;2019_Nov_25_0903;iat_vr;60.022640540066455;
4;TIER;Natur;q;1;9;29;13;q;1;0.7982716999999866;001;ARDS53;2019_Nov_25_0903;iat_vr;60.022640540066455;
4;POSITIV;positiv;p;1;10;30;8;p;1;4.1096657999999024;001;ARDS53;2019_Nov_25_0903;iat_vr;60.022640540066455;
4;GEBÄUDE;Gemacht;p;1;11;31;15;p;1;0.9145218999999543;001;ARDS53;2019_Nov_25_0903;iat_vr;60.022640540066455;
4;SCHWACH;negativ;q;1;12;32;4;q;1;0.8981665999999677;001;ARDS53;2019_Nov_25_0903;iat_vr;60.022640540066455;
4;KLEIDER;Gemacht;p;1;13;33;17;p;1;1.2312423000000763;001;ARDS53;2019_Nov_25_0903;iat_vr;60.022640540066455;
4;BAUM;Natur;q;1;14;34;10;q;1;1.865746100000024;001;ARDS53;2019_Nov_25_0903;iat_vr;60.022640540066455;
4;LAMPE;Gemacht;p;1;15;35;19;p;1;1.898060100000066;001;ARDS53;2019_Nov_25_0903;iat_vr;60.022640540066455;
4;STEIN;Natur;q;1;16;36;14;q;1;0.864049100000102;001;ARDS53;2019_Nov_25_0903;iat_vr;60.022640540066455;
4;COMPUTER;Gemacht;p;1;17;37;18;p;1;1.2145325000001321;001;ARDS53;2019_Nov_25_0903;iat_vr;60.022640540066455;
4;AUSGEZEICHNET;positiv;p;1;18;38;5;p;1;1.1451125999999476;001;ARDS53;2019_Nov_25_0903;iat_vr;60.022640540066455;
4;SCHLIMM;negativ;q;1;19;39;0;q;1;0.7590619000000061;001;ARDS53;2019_Nov_25_0903;iat_vr;60.022640540066455;
;;;;;;;;;;;001;ARDS53;2019_Nov_25_0903;iat_vr;60.022640540066455;
5;KLEIDER;Gemacht;q;0;0;0;7;p;0;3.2465991999999915;001;ARDS53;2019_Nov_25_0903;iat_vr;60.022640540066455;
5;BAUM;Natur;p;0;1;1;0;p;1;1.8485943000000589;001;ARDS53;2019_Nov_25_0903;iat_vr;60.022640540066455;
5;STEIN;Natur;p;0;2;2;4;p;1;2.7135659999999007;001;ARDS53;2019_Nov_25_0903;iat_vr;60.022640540066455;
5;STADT;Gemacht;q;0;3;3;6;q;1;1.0798070999999254;001;ARDS53;2019_Nov_25_0903;iat_vr;60.022640540066455;
5;BLUME;Natur;p;0;4;4;2;p;1;1.132088500000009;001;ARDS53;2019_Nov_25_0903;iat_vr;60.022640540066455;
5;LAMPE;Gemacht;q;0;5;5;9;q;1;2.8485344999999143;001;ARDS53;2019_Nov_25_0903;iat_vr;60.022640540066455;
5;WASSER;Natur;p;0;6;6;1;p;1;0.9468398999999863;001;ARDS53;2019_Nov_25_0903;iat_vr;60.022640540066455;
5;TIER;Natur;p;0;7;7;3;p;1;0.8485061999999743;001;ARDS53;2019_Nov_25_0903;iat_vr;60.022640540066455;
5;GEBÄUDE;Gemacht;q;0;8;8;5;q;1;0.8815320000001066;001;ARDS53;2019_Nov_25_0903;iat_vr;60.022640540066455;
5;COMPUTER;Gemacht;q;0;9;9;8;q;1;1.3807404000001497;001;ARDS53;2019_Nov_25_0903;iat_vr;60.022640540066455;
5;BAUM;Natur;p;1;0;10;0;p;1;0.7987348999999995;001;ARDS53;2019_Nov_25_0903;iat_vr;60.022640540066455;
5;STEIN;Natur;p;1;1;11;4;p;1;0.8322946000000684;001;ARDS53;2019_Nov_25_0903;iat_vr;60.022640540066455;
5;WASSER;Natur;p;1;2;12;1;p;1;0.6650690999999824;001;ARDS53;2019_Nov_25_0903;iat_vr;60.022640540066455;
5;BLUME;Natur;p;1;3;13;2;p;1;0.8478420999999798;001;ARDS53;2019_Nov_25_0903;iat_vr;60.022640540066455;
5;TIER;Natur;p;1;4;14;3;p;1;0.8648046000000704;001;ARDS53;2019_Nov_25_0903;iat_vr;60.022640540066455;
5;KLEIDER;Gemacht;q;1;5;15;7;q;1;1.8804574000000684;001;ARDS53;2019_Nov_25_0903;iat_vr;60.022640540066455;
5;COMPUTER;Gemacht;q;1;6;16;8;q;1;0.9434934000000794;001;ARDS53;2019_Nov_25_0903;iat_vr;60.022640540066455;
5;GEBÄUDE;Gemacht;q;1;7;17;5;q;1;2.679664300000013;001;ARDS53;2019_Nov_25_0903;iat_vr;60.022640540066455;
5;STADT;Gemacht;q;1;8;18;6;q;1;0.8319758999998612;001;ARDS53;2019_Nov_25_0903;iat_vr;60.022640540066455;
5;LAMPE;Gemacht;q;1;9;19;9;q;1;0.7661694999999327;001;ARDS53;2019_Nov_25_0903;iat_vr;60.022640540066455;
;;;;;;;;;;;001;ARDS53;2019_Nov_25_0903;iat_vr;60.022640540066455;
6;BLUME;Natur;p;0;0;0;2;q;0;2.167902599999934;001;ARDS53;2019_Nov_25_0903;iat_vr;60.022640540066455;
6;WASSER;Natur;p;0;1;1;1;p;1;0.05050389999996696;001;ARDS53;2019_Nov_25_0903;iat_vr;60.022640540066455;
6;STEIN;Natur;p;0;2;2;4;p;1;0.8987385999998878;001;ARDS53;2019_Nov_25_0903;iat_vr;60.022640540066455;
6;HERVORRAGEND;positiv;p;0;3;3;17;p;1;0.6434282999998686;001;ARDS53;2019_Nov_25_0903;iat_vr;60.022640540066455;
6;POSITIV;positiv;p;0;4;4;18;p;1;0.646777800000109;001;ARDS53;2019_Nov_25_0903;iat_vr;60.022640540066455;
6;TIER;Natur;p;0;5;5;3;p;1;0.5815671999998813;001;ARDS53;2019_Nov_25_0903;iat_vr;60.022640540066455;
6;GUT;positiv;p;0;6;6;19;p;1;0.5824070000001029;001;ARDS53;2019_Nov_25_0903;iat_vr;60.022640540066455;
6;KLEIDER;Gemacht;q;0;7;7;7;q;1;0.8444141999998465;001;ARDS53;2019_Nov_25_0903;iat_vr;60.022640540066455;
6;STADT;Gemacht;q;0;8;8;6;q;1;0.6749535999999807;001;ARDS53;2019_Nov_25_0903;iat_vr;60.022640540066455;
6;NEGATIV;negativ;q;0;9;9;12;q;1;0.9460602999999992;001;ARDS53;2019_Nov_25_0903;iat_vr;60.022640540066455;
6;COMPUTER;Gemacht;q;0;10;10;8;q;1;0.7304248000000371;001;ARDS53;2019_Nov_25_0903;iat_vr;60.022640540066455;
6;SCHWACH;negativ;q;0;11;11;14;q;1;3.3643429999999626;001;ARDS53;2019_Nov_25_0903;iat_vr;60.022640540066455;
6;BAUM;Natur;p;0;12;12;0;p;1;0.6989168999998583;001;ARDS53;2019_Nov_25_0903;iat_vr;60.022640540066455;
6;SCHÄDLICH;negativ;q;0;13;13;13;q;1;0.9975801999999021;001;ARDS53;2019_Nov_25_0903;iat_vr;60.022640540066455;
6;SCHLIMM;negativ;q;0;14;14;10;q;1;0.7976748000000953;001;ARDS53;2019_Nov_25_0903;iat_vr;60.022640540066455;
6;SCHLECHT;negativ;q;0;15;15;11;q;1;0.6961449000000357;001;ARDS53;2019_Nov_25_0903;iat_vr;60.022640540066455;
6;EINWANDFREI;positiv;p;0;16;16;16;p;1;1.1110317999998642;001;ARDS53;2019_Nov_25_0903;iat_vr;60.022640540066455;
6;LAMPE;Gemacht;q;0;17;17;9;q;1;0.7127659000000222;001;ARDS53;2019_Nov_25_0903;iat_vr;60.022640540066455;
6;AUSGEZEICHNET;positiv;p;0;18;18;15;p;1;0.8936940000000959;001;ARDS53;2019_Nov_25_0903;iat_vr;60.022640540066455;
6;GEBÄUDE;Gemacht;q;0;19;19;5;q;1;0.9134197999999287;001;ARDS53;2019_Nov_25_0903;iat_vr;60.022640540066455;
;;;;;;;;;;;001;ARDS53;2019_Nov_25_0903;iat_vr;60.022640540066455;
7;HERVORRAGEND;positiv;p;0;0;0;17;p;1;1.0883026000001337;001;ARDS53;2019_Nov_25_0903;iat_vr;60.022640540066455;
7;WASSER;Natur;p;0;1;1;1;p;1;0.6810700999999426;001;ARDS53;2019_Nov_25_0903;iat_vr;60.022640540066455;
7;EINWANDFREI;positiv;p;0;2;2;16;p;1;1.0620986999999786;001;ARDS53;2019_Nov_25_0903;iat_vr;60.022640540066455;
7;BAUM;Natur;p;0;3;3;0;p;1;0.6508231000000251;001;ARDS53;2019_Nov_25_0903;iat_vr;60.022640540066455;
7;SCHÄDLICH;negativ;q;0;4;4;13;q;1;0.7448947000000317;001;ARDS53;2019_Nov_25_0903;iat_vr;60.022640540066455;
7;STADT;Gemacht;q;0;5;5;6;q;1;1.297698900000114;001;ARDS53;2019_Nov_25_0903;iat_vr;60.022640540066455;
7;COMPUTER;Gemacht;q;0;6;6;8;q;1;0.8355348000000049;001;ARDS53;2019_Nov_25_0903;iat_vr;60.022640540066455;
7;SCHWACH;negativ;q;0;7;7;14;q;1;0.8780012999998235;001;ARDS53;2019_Nov_25_0903;iat_vr;60.022640540066455;
7;BLUME;Natur;p;0;8;8;2;p;1;1.4481097000000318;001;ARDS53;2019_Nov_25_0903;iat_vr;60.022640540066455;
7;AUSGEZEICHNET;positiv;p;0;9;9;15;p;1;1.0274838000000273;001;ARDS53;2019_Nov_25_0903;iat_vr;60.022640540066455;
7;NEGATIV;negativ;q;0;10;10;12;q;1;1.1608706999998049;001;ARDS53;2019_Nov_25_0903;iat_vr;60.022640540066455;
7;LAMPE;Gemacht;q;0;11;11;9;q;1;1.1685382999999092;001;ARDS53;2019_Nov_25_0903;iat_vr;60.022640540066455;
7;GEBÄUDE;Gemacht;q;0;12;12;5;q;1;1.362975699999879;001;ARDS53;2019_Nov_25_0903;iat_vr;60.022640540066455;
7;SCHLIMM;negativ;q;0;13;13;10;q;1;0.9464483000001565;001;ARDS53;2019_Nov_25_0903;iat_vr;60.022640540066455;
7;GUT;positiv;p;0;14;14;19;p;1;0.6809350000000904;001;ARDS53;2019_Nov_25_0903;iat_vr;60.022640540066455;
7;TIER;Natur;p;0;15;15;3;p;1;1.1353308999998717;001;ARDS53;2019_Nov_25_0903;iat_vr;60.022640540066455;
7;POSITIV;positiv;p;0;16;16;18;p;1;0.8136667999999645;001;ARDS53;2019_Nov_25_0903;iat_vr;60.022640540066455;
7;KLEIDER;Gemacht;q;0;17;17;7;q;1;0.8610717999999906;001;ARDS53;2019_Nov_25_0903;iat_vr;60.022640540066455;
7;STEIN;Natur;p;0;18;18;4;p;1;1.198767000000089;001;ARDS53;2019_Nov_25_0903;iat_vr;60.022640540066455;
7;SCHLECHT;negativ;q;0;19;19;11;q;1;2.01294740000003;001;ARDS53;2019_Nov_25_0903;iat_vr;60.022640540066455;
7;GEBÄUDE;Gemacht;q;1;0;20;5;q;1;2.1127822000000833;001;ARDS53;2019_Nov_25_0903;iat_vr;60.022640540066455;
7;BAUM;Natur;p;1;1;21;0;p;1;0.8148671000001286;001;ARDS53;2019_Nov_25_0903;iat_vr;60.022640540066455;
7;LAMPE;Gemacht;q;1;2;22;9;q;1;1.6967489999999543;001;ARDS53;2019_Nov_25_0903;iat_vr;60.022640540066455;
7;AUSGEZEICHNET;positiv;p;1;3;23;15;p;1;0.780015800000001;001;ARDS53;2019_Nov_25_0903;iat_vr;60.022640540066455;
7;NEGATIV;negativ;q;1;4;24;12;q;1;0.7848453000001427;001;ARDS53;2019_Nov_25_0903;iat_vr;60.022640540066455;
7;GUT;positiv;p;1;5;25;19;p;1;0.882761999999957;001;ARDS53;2019_Nov_25_0903;iat_vr;60.022640540066455;
7;TIER;Natur;p;1;6;26;3;p;1;1.0489220999997997;001;ARDS53;2019_Nov_25_0903;iat_vr;60.022640540066455;
7;SCHWACH;negativ;q;1;7;27;14;q;1;4.285123000000112;001;ARDS53;2019_Nov_25_0903;iat_vr;60.022640540066455;
7;STADT;Gemacht;q;1;8;28;6;q;1;0.9016097000001082;001;ARDS53;2019_Nov_25_0903;iat_vr;60.022640540066455;
7;COMPUTER;Gemacht;q;1;9;29;8;q;1;1.6518824999998287;001;ARDS53;2019_Nov_25_0903;iat_vr;60.022640540066455;
7;STEIN;Natur;p;1;10;30;4;p;1;0.7651164000001245;001;ARDS53;2019_Nov_25_0903;iat_vr;60.022640540066455;
7;HERVORRAGEND;positiv;p;1;11;31;17;p;1;0.7444073000001481;001;ARDS53;2019_Nov_25_0903;iat_vr;60.022640540066455;
7;SCHLIMM;negativ;q;1;12;32;10;q;1;2.7796807999998236;001;ARDS53;2019_Nov_25_0903;iat_vr;60.022640540066455;
7;EINWANDFREI;positiv;p;1;13;33;16;p;1;1.502597700000024;001;ARDS53;2019_Nov_25_0903;iat_vr;60.022640540066455;
7;WASSER;Natur;p;1;14;34;1;p;1;0.8641081999999187;001;ARDS53;2019_Nov_25_0903;iat_vr;60.022640540066455;
7;SCHLECHT;negativ;q;1;15;35;11;q;1;1.8128882000000885;001;ARDS53;2019_Nov_25_0903;iat_vr;60.022640540066455;
7;KLEIDER;Gemacht;q;1;16;36;7;q;1;1.3798735000000306;001;ARDS53;2019_Nov_25_0903;iat_vr;60.022640540066455;
7;BLUME;Natur;p;1;17;37;2;p;1;0.9012396000000535;001;ARDS53;2019_Nov_25_0903;iat_vr;60.022640540066455;
7;POSITIV;positiv;p;1;18;38;18;p;1;0.7127482000000782;001;ARDS53;2019_Nov_25_0903;iat_vr;60.022640540066455;
7;SCHÄDLICH;negativ;q;1;19;39;13;q;1;0.7954426000001149;001;ARDS53;2019_Nov_25_0903;iat_vr;60.022640540066455;
;;;;;;;;;;;001;ARDS53;2019_Nov_25_0903;iat_vr;60.022640540066455;
