Block;Word;Category;CorrResp;trials.thisRepN;trials.thisTrialN;trials.thisN;trials.thisIndex;key_resp_2.keys;key_resp_2.corr;key_resp_2.rt;session;participant;date;expName;frameRate;
1;BAUM;Natur;q;0;0;0;0;q;1;1.606790899997577;001;ARGZ94;2019_Dec_16_1353;iat_vr;59.973827417916326;
1;COMPUTER;Gemacht;p;0;1;1;8;q;0;1.0003693000180647;001;ARGZ94;2019_Dec_16_1353;iat_vr;59.973827417916326;
1;STEIN;Natur;q;0;2;2;4;q;1;0.7001589999999851;001;ARGZ94;2019_Dec_16_1353;iat_vr;59.973827417916326;
1;STADT;Gemacht;p;0;3;3;6;p;1;0.6335301999934018;001;ARGZ94;2019_Dec_16_1353;iat_vr;59.973827417916326;
1;BLUME;Natur;q;0;4;4;2;q;1;0.6004686000524089;001;ARGZ94;2019_Dec_16_1353;iat_vr;59.973827417916326;
1;LAMPE;Gemacht;p;0;5;5;9;p;1;0.7666648000013083;001;ARGZ94;2019_Dec_16_1353;iat_vr;59.973827417916326;
1;GEBÄUDE;Gemacht;p;0;6;6;5;p;1;0.6503014999907464;001;ARGZ94;2019_Dec_16_1353;iat_vr;59.973827417916326;
1;WASSER;Natur;q;0;7;7;1;q;1;0.6001467000460252;001;ARGZ94;2019_Dec_16_1353;iat_vr;59.973827417916326;
1;KLEIDER;Gemacht;p;0;8;8;7;p;1;0.6335101999575272;001;ARGZ94;2019_Dec_16_1353;iat_vr;59.973827417916326;
1;TIER;Natur;q;0;9;9;3;q;1;0.9690311000449583;001;ARGZ94;2019_Dec_16_1353;iat_vr;59.973827417916326;
1;WASSER;Natur;q;1;0;10;1;q;1;0.6638147999765351;001;ARGZ94;2019_Dec_16_1353;iat_vr;59.973827417916326;
1;KLEIDER;Gemacht;p;1;1;11;7;p;1;1.2000867000315338;001;ARGZ94;2019_Dec_16_1353;iat_vr;59.973827417916326;
1;GEBÄUDE;Gemacht;p;1;2;12;5;p;1;0.7306875000940636;001;ARGZ94;2019_Dec_16_1353;iat_vr;59.973827417916326;
1;TIER;Natur;q;1;3;13;3;q;1;0.6838731999741867;001;ARGZ94;2019_Dec_16_1353;iat_vr;59.973827417916326;
1;BLUME;Natur;q;1;4;14;2;q;1;0.6804739999352023;001;ARGZ94;2019_Dec_16_1353;iat_vr;59.973827417916326;
1;COMPUTER;Gemacht;p;1;5;15;8;p;1;1.0469441000605002;001;ARGZ94;2019_Dec_16_1353;iat_vr;59.973827417916326;
1;STEIN;Natur;q;1;6;16;4;q;1;1.0452059999806806;001;ARGZ94;2019_Dec_16_1353;iat_vr;59.973827417916326;
1;BAUM;Natur;q;1;7;17;0;q;1;0.5463570000138134;001;ARGZ94;2019_Dec_16_1353;iat_vr;59.973827417916326;
1;STADT;Gemacht;p;1;8;18;6;p;1;0.7692849999293685;001;ARGZ94;2019_Dec_16_1353;iat_vr;59.973827417916326;
1;LAMPE;Gemacht;p;1;9;19;9;p;1;0.6974099000217393;001;ARGZ94;2019_Dec_16_1353;iat_vr;59.973827417916326;
;;;;;;;;;;;001;ARGZ94;2019_Dec_16_1353;iat_vr;59.973827417916326;
2;SCHÄDLICH;negativ;q;0;0;0;3;q;1;1.4918938999762759;001;ARGZ94;2019_Dec_16_1353;iat_vr;59.973827417916326;
2;NEGATIV;negativ;q;0;1;1;2;q;1;0.6992427000077441;001;ARGZ94;2019_Dec_16_1353;iat_vr;59.973827417916326;
2;POSITIV;positiv;p;0;2;2;8;p;1;0.6139292999869213;001;ARGZ94;2019_Dec_16_1353;iat_vr;59.973827417916326;
2;HERVORRAGEND;positiv;p;0;3;3;7;p;1;0.6620310000143945;001;ARGZ94;2019_Dec_16_1353;iat_vr;59.973827417916326;
2;SCHLECHT;negativ;q;0;4;4;1;q;1;0.6808655000058934;001;ARGZ94;2019_Dec_16_1353;iat_vr;59.973827417916326;
2;SCHWACH;negativ;q;0;5;5;4;q;1;0.6524042999371886;001;ARGZ94;2019_Dec_16_1353;iat_vr;59.973827417916326;
2;SCHLIMM;negativ;q;0;6;6;0;q;1;0.6796775000402704;001;ARGZ94;2019_Dec_16_1353;iat_vr;59.973827417916326;
2;AUSGEZEICHNET;positiv;p;0;7;7;5;p;1;0.5873547000810504;001;ARGZ94;2019_Dec_16_1353;iat_vr;59.973827417916326;
2;GUT;positiv;p;0;8;8;9;p;1;0.6310039999661967;001;ARGZ94;2019_Dec_16_1353;iat_vr;59.973827417916326;
2;EINWANDFREI;positiv;p;0;9;9;6;p;1;0.5485555999912322;001;ARGZ94;2019_Dec_16_1353;iat_vr;59.973827417916326;
2;SCHWACH;negativ;q;1;0;10;4;q;1;0.5974546999204904;001;ARGZ94;2019_Dec_16_1353;iat_vr;59.973827417916326;
2;EINWANDFREI;positiv;p;1;1;11;6;p;1;0.681716899969615;001;ARGZ94;2019_Dec_16_1353;iat_vr;59.973827417916326;
2;HERVORRAGEND;positiv;p;1;2;12;7;p;1;0.6296429000794888;001;ARGZ94;2019_Dec_16_1353;iat_vr;59.973827417916326;
2;NEGATIV;negativ;q;1;3;13;2;q;1;0.5282062999904156;001;ARGZ94;2019_Dec_16_1353;iat_vr;59.973827417916326;
2;POSITIV;positiv;p;1;4;14;8;p;1;0.5302037999499589;001;ARGZ94;2019_Dec_16_1353;iat_vr;59.973827417916326;
2;AUSGEZEICHNET;positiv;p;1;5;15;5;p;1;0.6757035000482574;001;ARGZ94;2019_Dec_16_1353;iat_vr;59.973827417916326;
2;GUT;positiv;p;1;6;16;9;p;1;0.5650832999963313;001;ARGZ94;2019_Dec_16_1353;iat_vr;59.973827417916326;
2;SCHLIMM;negativ;q;1;7;17;0;q;1;0.6472804999211803;001;ARGZ94;2019_Dec_16_1353;iat_vr;59.973827417916326;
2;SCHLECHT;negativ;q;1;8;18;1;q;1;0.49720669991802424;001;ARGZ94;2019_Dec_16_1353;iat_vr;59.973827417916326;
2;SCHÄDLICH;negativ;q;1;9;19;3;q;1;0.5381632000207901;001;ARGZ94;2019_Dec_16_1353;iat_vr;59.973827417916326;
;;;;;;;;;;;001;ARGZ94;2019_Dec_16_1353;iat_vr;59.973827417916326;
3;BAUM;Natur;q;0;0;0;10;q;1;0.9035639999201521;001;ARGZ94;2019_Dec_16_1353;iat_vr;59.973827417916326;
3;SCHÄDLICH;negativ;q;0;1;1;3;q;1;1.1778760000597686;001;ARGZ94;2019_Dec_16_1353;iat_vr;59.973827417916326;
3;NEGATIV;negativ;q;0;2;2;2;q;1;0.6617705998942256;001;ARGZ94;2019_Dec_16_1353;iat_vr;59.973827417916326;
3;SCHWACH;negativ;q;0;3;3;4;q;1;0.5963299999712035;001;ARGZ94;2019_Dec_16_1353;iat_vr;59.973827417916326;
3;GUT;positiv;p;0;4;4;9;p;1;0.565368999959901;001;ARGZ94;2019_Dec_16_1353;iat_vr;59.973827417916326;
3;COMPUTER;Gemacht;p;0;5;5;18;p;1;0.7637815999332815;001;ARGZ94;2019_Dec_16_1353;iat_vr;59.973827417916326;
3;HERVORRAGEND;positiv;p;0;6;6;7;p;1;0.624989700037986;001;ARGZ94;2019_Dec_16_1353;iat_vr;59.973827417916326;
3;LAMPE;Gemacht;p;0;7;7;19;q;0;0.702462499961257;001;ARGZ94;2019_Dec_16_1353;iat_vr;59.973827417916326;
3;POSITIV;positiv;p;0;8;8;8;p;1;2.1339648999273777;001;ARGZ94;2019_Dec_16_1353;iat_vr;59.973827417916326;
3;SCHLECHT;negativ;q;0;9;9;1;q;1;0.701798600028269;001;ARGZ94;2019_Dec_16_1353;iat_vr;59.973827417916326;
3;WASSER;Natur;q;0;10;10;11;q;1;0.6754168999614194;001;ARGZ94;2019_Dec_16_1353;iat_vr;59.973827417916326;
3;AUSGEZEICHNET;positiv;p;0;11;11;5;p;1;0.7284100000979379;001;ARGZ94;2019_Dec_16_1353;iat_vr;59.973827417916326;
3;STADT;Gemacht;p;0;12;12;16;p;1;0.6313412999734282;001;ARGZ94;2019_Dec_16_1353;iat_vr;59.973827417916326;
3;KLEIDER;Gemacht;p;0;13;13;17;p;1;0.6471491999691352;001;ARGZ94;2019_Dec_16_1353;iat_vr;59.973827417916326;
3;TIER;Natur;q;0;14;14;13;q;1;0.8365993000334129;001;ARGZ94;2019_Dec_16_1353;iat_vr;59.973827417916326;
3;EINWANDFREI;positiv;p;0;15;15;6;p;1;0.6931678999681026;001;ARGZ94;2019_Dec_16_1353;iat_vr;59.973827417916326;
3;BLUME;Natur;q;0;16;16;12;q;1;0.7486289000371471;001;ARGZ94;2019_Dec_16_1353;iat_vr;59.973827417916326;
3;STEIN;Natur;q;0;17;17;14;q;1;0.5467380000045523;001;ARGZ94;2019_Dec_16_1353;iat_vr;59.973827417916326;
3;SCHLIMM;negativ;q;0;18;18;0;p;0;0.8432103999657556;001;ARGZ94;2019_Dec_16_1353;iat_vr;59.973827417916326;
3;GEBÄUDE;Gemacht;p;0;19;19;15;p;1;1.0455631000222638;001;ARGZ94;2019_Dec_16_1353;iat_vr;59.973827417916326;
;;;;;;;;;;;001;ARGZ94;2019_Dec_16_1353;iat_vr;59.973827417916326;
4;NEGATIV;negativ;q;0;0;0;2;q;1;0.7599313000682741;001;ARGZ94;2019_Dec_16_1353;iat_vr;59.973827417916326;
4;POSITIV;positiv;p;0;1;1;8;p;1;0.6615744999144226;001;ARGZ94;2019_Dec_16_1353;iat_vr;59.973827417916326;
4;AUSGEZEICHNET;positiv;p;0;2;2;5;p;1;0.7597170999506488;001;ARGZ94;2019_Dec_16_1353;iat_vr;59.973827417916326;
4;GEBÄUDE;Gemacht;p;0;3;3;15;p;1;0.7117352999048308;001;ARGZ94;2019_Dec_16_1353;iat_vr;59.973827417916326;
4;GUT;positiv;p;0;4;4;9;p;1;0.8859105000738055;001;ARGZ94;2019_Dec_16_1353;iat_vr;59.973827417916326;
4;KLEIDER;Gemacht;p;0;5;5;17;p;1;1.3025851999409497;001;ARGZ94;2019_Dec_16_1353;iat_vr;59.973827417916326;
4;LAMPE;Gemacht;p;0;6;6;19;p;1;0.5852254999335855;001;ARGZ94;2019_Dec_16_1353;iat_vr;59.973827417916326;
4;TIER;Natur;q;0;7;7;13;q;1;0.502998000010848;001;ARGZ94;2019_Dec_16_1353;iat_vr;59.973827417916326;
4;COMPUTER;Gemacht;p;0;8;8;18;p;1;0.5429006000049412;001;ARGZ94;2019_Dec_16_1353;iat_vr;59.973827417916326;
4;SCHLECHT;negativ;q;0;9;9;1;q;1;1.3118885000003502;001;ARGZ94;2019_Dec_16_1353;iat_vr;59.973827417916326;
4;BAUM;Natur;q;0;10;10;10;q;1;1.0814276000019163;001;ARGZ94;2019_Dec_16_1353;iat_vr;59.973827417916326;
4;EINWANDFREI;positiv;p;0;11;11;6;p;1;0.6450719999847934;001;ARGZ94;2019_Dec_16_1353;iat_vr;59.973827417916326;
4;SCHÄDLICH;negativ;q;0;12;12;3;q;1;0.5572662999620661;001;ARGZ94;2019_Dec_16_1353;iat_vr;59.973827417916326;
4;STEIN;Natur;q;0;13;13;14;q;1;0.5975904999068007;001;ARGZ94;2019_Dec_16_1353;iat_vr;59.973827417916326;
4;BLUME;Natur;q;0;14;14;12;q;1;0.5951841999776661;001;ARGZ94;2019_Dec_16_1353;iat_vr;59.973827417916326;
4;SCHWACH;negativ;q;0;15;15;4;q;1;1.3980454000411555;001;ARGZ94;2019_Dec_16_1353;iat_vr;59.973827417916326;
4;SCHLIMM;negativ;q;0;16;16;0;q;1;0.544233699911274;001;ARGZ94;2019_Dec_16_1353;iat_vr;59.973827417916326;
4;WASSER;Natur;q;0;17;17;11;q;1;0.6149274000199512;001;ARGZ94;2019_Dec_16_1353;iat_vr;59.973827417916326;
4;HERVORRAGEND;positiv;p;0;18;18;7;p;1;0.6118944999761879;001;ARGZ94;2019_Dec_16_1353;iat_vr;59.973827417916326;
4;STADT;Gemacht;p;0;19;19;16;p;1;0.5694885000120848;001;ARGZ94;2019_Dec_16_1353;iat_vr;59.973827417916326;
4;TIER;Natur;q;1;0;20;13;q;1;1.2487099999561906;001;ARGZ94;2019_Dec_16_1353;iat_vr;59.973827417916326;
4;KLEIDER;Gemacht;p;1;1;21;17;p;1;0.6360340999672189;001;ARGZ94;2019_Dec_16_1353;iat_vr;59.973827417916326;
4;EINWANDFREI;positiv;p;1;2;22;6;p;1;0.6443431000225246;001;ARGZ94;2019_Dec_16_1353;iat_vr;59.973827417916326;
4;SCHÄDLICH;negativ;q;1;3;23;3;q;1;1.0189632000401616;001;ARGZ94;2019_Dec_16_1353;iat_vr;59.973827417916326;
4;NEGATIV;negativ;q;1;4;24;2;q;1;0.46348620008211583;001;ARGZ94;2019_Dec_16_1353;iat_vr;59.973827417916326;
4;GEBÄUDE;Gemacht;p;1;5;25;15;p;1;0.6309732000809163;001;ARGZ94;2019_Dec_16_1353;iat_vr;59.973827417916326;
4;AUSGEZEICHNET;positiv;p;1;6;26;5;p;1;0.6102019000099972;001;ARGZ94;2019_Dec_16_1353;iat_vr;59.973827417916326;
4;COMPUTER;Gemacht;p;1;7;27;18;p;1;0.5642773999134079;001;ARGZ94;2019_Dec_16_1353;iat_vr;59.973827417916326;
4;HERVORRAGEND;positiv;p;1;8;28;7;p;1;0.5948367000091821;001;ARGZ94;2019_Dec_16_1353;iat_vr;59.973827417916326;
4;STADT;Gemacht;p;1;9;29;16;p;1;0.564516399987042;001;ARGZ94;2019_Dec_16_1353;iat_vr;59.973827417916326;
4;STEIN;Natur;q;1;10;30;14;q;1;0.5979104000143707;001;ARGZ94;2019_Dec_16_1353;iat_vr;59.973827417916326;
4;SCHLIMM;negativ;q;1;11;31;0;q;1;0.6144422999350354;001;ARGZ94;2019_Dec_16_1353;iat_vr;59.973827417916326;
4;SCHLECHT;negativ;q;1;12;32;1;q;1;0.5191234000958502;001;ARGZ94;2019_Dec_16_1353;iat_vr;59.973827417916326;
4;BLUME;Natur;q;1;13;33;12;q;1;0.6985754000488669;001;ARGZ94;2019_Dec_16_1353;iat_vr;59.973827417916326;
4;SCHWACH;negativ;q;1;14;34;4;q;1;2.2478929000208154;001;ARGZ94;2019_Dec_16_1353;iat_vr;59.973827417916326;
4;LAMPE;Gemacht;p;1;15;35;19;q;0;0.9612997000804171;001;ARGZ94;2019_Dec_16_1353;iat_vr;59.973827417916326;
4;WASSER;Natur;q;1;16;36;11;q;1;0.7983759000198916;001;ARGZ94;2019_Dec_16_1353;iat_vr;59.973827417916326;
4;BAUM;Natur;q;1;17;37;10;q;1;0.7146776000736281;001;ARGZ94;2019_Dec_16_1353;iat_vr;59.973827417916326;
4;GUT;positiv;p;1;18;38;9;q;0;0.43012180004734546;001;ARGZ94;2019_Dec_16_1353;iat_vr;59.973827417916326;
4;POSITIV;positiv;p;1;19;39;8;p;1;1.7297299000201747;001;ARGZ94;2019_Dec_16_1353;iat_vr;59.973827417916326;
;;;;;;;;;;;001;ARGZ94;2019_Dec_16_1353;iat_vr;59.973827417916326;
5;BAUM;Natur;p;0;0;0;0;p;1;1.278665899997577;001;ARGZ94;2019_Dec_16_1353;iat_vr;59.973827417916326;
5;STADT;Gemacht;q;0;1;1;6;q;1;0.6619341999758035;001;ARGZ94;2019_Dec_16_1353;iat_vr;59.973827417916326;
5;KLEIDER;Gemacht;q;0;2;2;7;q;1;1.3696154999779537;001;ARGZ94;2019_Dec_16_1353;iat_vr;59.973827417916326;
5;TIER;Natur;p;0;3;3;3;p;1;0.5767754999687895;001;ARGZ94;2019_Dec_16_1353;iat_vr;59.973827417916326;
5;WASSER;Natur;p;0;4;4;1;p;1;0.5776624999707565;001;ARGZ94;2019_Dec_16_1353;iat_vr;59.973827417916326;
5;STEIN;Natur;p;0;5;5;4;p;1;0.7333023999817669;001;ARGZ94;2019_Dec_16_1353;iat_vr;59.973827417916326;
5;BLUME;Natur;p;0;6;6;2;p;1;0.5197712000226602;001;ARGZ94;2019_Dec_16_1353;iat_vr;59.973827417916326;
5;GEBÄUDE;Gemacht;q;0;7;7;5;q;1;0.7469733000034466;001;ARGZ94;2019_Dec_16_1353;iat_vr;59.973827417916326;
5;COMPUTER;Gemacht;q;0;8;8;8;q;1;0.8949734999332577;001;ARGZ94;2019_Dec_16_1353;iat_vr;59.973827417916326;
5;LAMPE;Gemacht;q;0;9;9;9;q;1;0.6132786999223754;001;ARGZ94;2019_Dec_16_1353;iat_vr;59.973827417916326;
5;COMPUTER;Gemacht;q;1;0;10;8;q;1;0.5287053000647575;001;ARGZ94;2019_Dec_16_1353;iat_vr;59.973827417916326;
5;TIER;Natur;p;1;1;11;3;p;1;0.4986680999863893;001;ARGZ94;2019_Dec_16_1353;iat_vr;59.973827417916326;
5;LAMPE;Gemacht;q;1;2;12;9;q;1;0.5967027998995036;001;ARGZ94;2019_Dec_16_1353;iat_vr;59.973827417916326;
5;GEBÄUDE;Gemacht;q;1;3;13;5;q;1;1.6951659999322146;001;ARGZ94;2019_Dec_16_1353;iat_vr;59.973827417916326;
5;STEIN;Natur;p;1;4;14;4;p;1;0.6358709000051022;001;ARGZ94;2019_Dec_16_1353;iat_vr;59.973827417916326;
5;BLUME;Natur;p;1;5;15;2;p;1;0.5402661999687552;001;ARGZ94;2019_Dec_16_1353;iat_vr;59.973827417916326;
5;STADT;Gemacht;q;1;6;16;6;q;1;0.514726800029166;001;ARGZ94;2019_Dec_16_1353;iat_vr;59.973827417916326;
5;WASSER;Natur;p;1;7;17;1;p;1;0.47569380002096295;001;ARGZ94;2019_Dec_16_1353;iat_vr;59.973827417916326;
5;BAUM;Natur;p;1;8;18;0;p;1;0.6319766999222338;001;ARGZ94;2019_Dec_16_1353;iat_vr;59.973827417916326;
5;KLEIDER;Gemacht;q;1;9;19;7;q;1;0.512585400021635;001;ARGZ94;2019_Dec_16_1353;iat_vr;59.973827417916326;
;;;;;;;;;;;001;ARGZ94;2019_Dec_16_1353;iat_vr;59.973827417916326;
6;EINWANDFREI;positiv;p;0;0;0;16;q;0;1.9335971999680623;001;ARGZ94;2019_Dec_16_1353;iat_vr;59.973827417916326;
6;BLUME;Natur;p;0;1;1;2;p;1;2.562170899938792;001;ARGZ94;2019_Dec_16_1353;iat_vr;59.973827417916326;
6;STEIN;Natur;p;0;2;2;4;p;1;0.5839005000889301;001;ARGZ94;2019_Dec_16_1353;iat_vr;59.973827417916326;
6;HERVORRAGEND;positiv;p;0;3;3;17;q;0;1.184096800046973;001;ARGZ94;2019_Dec_16_1353;iat_vr;59.973827417916326;
6;SCHWACH;negativ;q;0;4;4;14;q;1;1.6456487000687048;001;ARGZ94;2019_Dec_16_1353;iat_vr;59.973827417916326;
6;SCHLECHT;negativ;q;0;5;5;11;q;1;0.6198215999174863;001;ARGZ94;2019_Dec_16_1353;iat_vr;59.973827417916326;
6;AUSGEZEICHNET;positiv;p;0;6;6;15;p;1;1.014737299992703;001;ARGZ94;2019_Dec_16_1353;iat_vr;59.973827417916326;
6;KLEIDER;Gemacht;q;0;7;7;7;q;1;3.444828400039114;001;ARGZ94;2019_Dec_16_1353;iat_vr;59.973827417916326;
6;SCHÄDLICH;negativ;q;0;8;8;13;q;1;2.2259282000595704;001;ARGZ94;2019_Dec_16_1353;iat_vr;59.973827417916326;
6;NEGATIV;negativ;q;0;9;9;12;q;1;0.6303689000196755;001;ARGZ94;2019_Dec_16_1353;iat_vr;59.973827417916326;
6;COMPUTER;Gemacht;q;0;10;10;8;q;1;0.6840415999758989;001;ARGZ94;2019_Dec_16_1353;iat_vr;59.973827417916326;
6;GUT;positiv;p;0;11;11;19;p;1;0.7647121999179944;001;ARGZ94;2019_Dec_16_1353;iat_vr;59.973827417916326;
6;POSITIV;positiv;p;0;12;12;18;p;1;0.5641175999771804;001;ARGZ94;2019_Dec_16_1353;iat_vr;59.973827417916326;
6;BAUM;Natur;p;0;13;13;0;p;1;1.2162777000339702;001;ARGZ94;2019_Dec_16_1353;iat_vr;59.973827417916326;
6;STADT;Gemacht;q;0;14;14;6;q;1;0.7478225999511778;001;ARGZ94;2019_Dec_16_1353;iat_vr;59.973827417916326;
6;LAMPE;Gemacht;q;0;15;15;9;q;1;0.5808298999909312;001;ARGZ94;2019_Dec_16_1353;iat_vr;59.973827417916326;
6;WASSER;Natur;p;0;16;16;1;p;1;0.5476613999344409;001;ARGZ94;2019_Dec_16_1353;iat_vr;59.973827417916326;
6;SCHLIMM;negativ;q;0;17;17;10;q;1;0.8965850000968203;001;ARGZ94;2019_Dec_16_1353;iat_vr;59.973827417916326;
6;TIER;Natur;p;0;18;18;3;p;1;1.5319119999185205;001;ARGZ94;2019_Dec_16_1353;iat_vr;59.973827417916326;
6;GEBÄUDE;Gemacht;q;0;19;19;5;q;1;0.662832000060007;001;ARGZ94;2019_Dec_16_1353;iat_vr;59.973827417916326;
;;;;;;;;;;;001;ARGZ94;2019_Dec_16_1353;iat_vr;59.973827417916326;
7;SCHLIMM;negativ;q;0;0;0;10;q;1;1.0037626000121236;001;ARGZ94;2019_Dec_16_1353;iat_vr;59.973827417916326;
7;AUSGEZEICHNET;positiv;p;0;1;1;15;p;1;0.6834363000234589;001;ARGZ94;2019_Dec_16_1353;iat_vr;59.973827417916326;
7;HERVORRAGEND;positiv;p;0;2;2;17;p;1;0.6693824999965727;001;ARGZ94;2019_Dec_16_1353;iat_vr;59.973827417916326;
7;GEBÄUDE;Gemacht;q;0;3;3;5;q;1;1.363730899989605;001;ARGZ94;2019_Dec_16_1353;iat_vr;59.973827417916326;
7;WASSER;Natur;p;0;4;4;1;p;1;0.5147975999861956;001;ARGZ94;2019_Dec_16_1353;iat_vr;59.973827417916326;
7;STADT;Gemacht;q;0;5;5;6;q;1;0.6986582000972703;001;ARGZ94;2019_Dec_16_1353;iat_vr;59.973827417916326;
7;SCHWACH;negativ;q;0;6;6;14;q;1;1.0785386000061408;001;ARGZ94;2019_Dec_16_1353;iat_vr;59.973827417916326;
7;BAUM;Natur;p;0;7;7;0;p;1;0.6802613999461755;001;ARGZ94;2019_Dec_16_1353;iat_vr;59.973827417916326;
7;SCHLECHT;negativ;q;0;8;8;11;q;1;0.9619196999119595;001;ARGZ94;2019_Dec_16_1353;iat_vr;59.973827417916326;
7;BLUME;Natur;p;0;9;9;2;p;1;0.6284073999850079;001;ARGZ94;2019_Dec_16_1353;iat_vr;59.973827417916326;
7;EINWANDFREI;positiv;p;0;10;10;16;p;1;0.6104995000641793;001;ARGZ94;2019_Dec_16_1353;iat_vr;59.973827417916326;
7;STEIN;Natur;p;0;11;11;4;p;1;0.6488128000637516;001;ARGZ94;2019_Dec_16_1353;iat_vr;59.973827417916326;
7;GUT;positiv;p;0;12;12;19;p;1;0.6143769999034703;001;ARGZ94;2019_Dec_16_1353;iat_vr;59.973827417916326;
7;POSITIV;positiv;p;0;13;13;18;p;1;0.5471008999738842;001;ARGZ94;2019_Dec_16_1353;iat_vr;59.973827417916326;
7;LAMPE;Gemacht;q;0;14;14;9;q;1;0.6431137999752536;001;ARGZ94;2019_Dec_16_1353;iat_vr;59.973827417916326;
7;NEGATIV;negativ;q;0;15;15;12;q;1;0.6471519999904558;001;ARGZ94;2019_Dec_16_1353;iat_vr;59.973827417916326;
7;KLEIDER;Gemacht;q;0;16;16;7;q;1;0.7143944000126794;001;ARGZ94;2019_Dec_16_1353;iat_vr;59.973827417916326;
7;SCHÄDLICH;negativ;q;0;17;17;13;q;1;0.864060900057666;001;ARGZ94;2019_Dec_16_1353;iat_vr;59.973827417916326;
7;TIER;Natur;p;0;18;18;3;p;1;0.9857547000283375;001;ARGZ94;2019_Dec_16_1353;iat_vr;59.973827417916326;
7;COMPUTER;Gemacht;q;0;19;19;8;q;1;0.6001195999560878;001;ARGZ94;2019_Dec_16_1353;iat_vr;59.973827417916326;
7;SCHLECHT;negativ;q;1;0;20;11;q;1;0.7527461999561638;001;ARGZ94;2019_Dec_16_1353;iat_vr;59.973827417916326;
7;GUT;positiv;p;1;1;21;19;p;1;0.48296419996768236;001;ARGZ94;2019_Dec_16_1353;iat_vr;59.973827417916326;
7;COMPUTER;Gemacht;q;1;2;22;8;q;1;0.5975204000715166;001;ARGZ94;2019_Dec_16_1353;iat_vr;59.973827417916326;
7;STEIN;Natur;p;1;3;23;4;p;1;0.7635922000044957;001;ARGZ94;2019_Dec_16_1353;iat_vr;59.973827417916326;
7;LAMPE;Gemacht;q;1;4;24;9;q;1;0.6152559999609366;001;ARGZ94;2019_Dec_16_1353;iat_vr;59.973827417916326;
7;KLEIDER;Gemacht;q;1;5;25;7;q;1;0.8975103999255225;001;ARGZ94;2019_Dec_16_1353;iat_vr;59.973827417916326;
7;GEBÄUDE;Gemacht;q;1;6;26;5;q;1;0.5428928000619635;001;ARGZ94;2019_Dec_16_1353;iat_vr;59.973827417916326;
7;BLUME;Natur;p;1;7;27;2;p;1;0.5144429999636486;001;ARGZ94;2019_Dec_16_1353;iat_vr;59.973827417916326;
7;SCHWACH;negativ;q;1;8;28;14;q;1;0.6973750999895856;001;ARGZ94;2019_Dec_16_1353;iat_vr;59.973827417916326;
7;NEGATIV;negativ;q;1;9;29;12;q;1;0.5125494000967592;001;ARGZ94;2019_Dec_16_1353;iat_vr;59.973827417916326;
7;HERVORRAGEND;positiv;p;1;10;30;17;p;1;0.661252100020647;001;ARGZ94;2019_Dec_16_1353;iat_vr;59.973827417916326;
7;AUSGEZEICHNET;positiv;p;1;11;31;15;p;1;0.5372587000019848;001;ARGZ94;2019_Dec_16_1353;iat_vr;59.973827417916326;
7;EINWANDFREI;positiv;p;1;12;32;16;p;1;0.5940407000016421;001;ARGZ94;2019_Dec_16_1353;iat_vr;59.973827417916326;
7;STADT;Gemacht;q;1;13;33;6;q;1;1.0816008999245241;001;ARGZ94;2019_Dec_16_1353;iat_vr;59.973827417916326;
7;BAUM;Natur;p;1;14;34;0;p;1;0.828134800074622;001;ARGZ94;2019_Dec_16_1353;iat_vr;59.973827417916326;
7;SCHÄDLICH;negativ;q;1;15;35;13;q;1;1.1949563999660313;001;ARGZ94;2019_Dec_16_1353;iat_vr;59.973827417916326;
7;POSITIV;positiv;p;1;16;36;18;p;1;0.6304037000518292;001;ARGZ94;2019_Dec_16_1353;iat_vr;59.973827417916326;
7;SCHLIMM;negativ;q;1;17;37;10;q;1;0.6600888000102714;001;ARGZ94;2019_Dec_16_1353;iat_vr;59.973827417916326;
7;WASSER;Natur;p;1;18;38;1;p;1;0.862056800047867;001;ARGZ94;2019_Dec_16_1353;iat_vr;59.973827417916326;
7;TIER;Natur;p;1;19;39;3;p;1;0.5643680000212044;001;ARGZ94;2019_Dec_16_1353;iat_vr;59.973827417916326;
;;;;;;;;;;;001;ARGZ94;2019_Dec_16_1353;iat_vr;59.973827417916326;
