Block;Word;Category;CorrResp;trials.thisRepN;trials.thisTrialN;trials.thisN;trials.thisIndex;key_resp_2.keys;key_resp_2.corr;key_resp_2.rt;session;participant;date;expName;frameRate;
1;STADT;Gemacht;p;0;0;0;6;p;1;1.4645019000017783;001;ARJA99;2019_Nov_25_1524;iat_vr;60.009349456230076;
1;COMPUTER;Gemacht;p;0;1;1;8;q;0;2.7097224999997707;001;ARJA99;2019_Nov_25_1524;iat_vr;60.009349456230076;
1;GEBÄUDE;Gemacht;p;0;2;2;5;q;0;1.0207227999999304;001;ARJA99;2019_Nov_25_1524;iat_vr;60.009349456230076;
1;BLUME;Natur;q;0;3;3;2;q;1;1.8139530000007653;001;ARJA99;2019_Nov_25_1524;iat_vr;60.009349456230076;
1;TIER;Natur;q;0;4;4;3;q;1;0.9308337000002211;001;ARJA99;2019_Nov_25_1524;iat_vr;60.009349456230076;
1;KLEIDER;Gemacht;p;0;5;5;7;p;1;1.0787698999993154;001;ARJA99;2019_Nov_25_1524;iat_vr;60.009349456230076;
1;STEIN;Natur;q;0;6;6;4;q;1;0.9278607999985979;001;ARJA99;2019_Nov_25_1524;iat_vr;60.009349456230076;
1;LAMPE;Gemacht;p;0;7;7;9;p;1;1.2477279999984603;001;ARJA99;2019_Nov_25_1524;iat_vr;60.009349456230076;
1;WASSER;Natur;q;0;8;8;1;q;1;0.8430960999976378;001;ARJA99;2019_Nov_25_1524;iat_vr;60.009349456230076;
1;BAUM;Natur;q;0;9;9;0;q;1;0.8981779999994615;001;ARJA99;2019_Nov_25_1524;iat_vr;60.009349456230076;
1;BAUM;Natur;q;1;0;10;0;q;1;0.734827199998108;001;ARJA99;2019_Nov_25_1524;iat_vr;60.009349456230076;
1;STEIN;Natur;q;1;1;11;4;q;1;0.7308843999999226;001;ARJA99;2019_Nov_25_1524;iat_vr;60.009349456230076;
1;COMPUTER;Gemacht;p;1;2;12;8;p;1;0.7478239000010944;001;ARJA99;2019_Nov_25_1524;iat_vr;60.009349456230076;
1;TIER;Natur;q;1;3;13;3;q;1;0.6321704000001773;001;ARJA99;2019_Nov_25_1524;iat_vr;60.009349456230076;
1;LAMPE;Gemacht;p;1;4;14;9;p;1;1.5975969999999506;001;ARJA99;2019_Nov_25_1524;iat_vr;60.009349456230076;
1;STADT;Gemacht;p;1;5;15;6;p;1;0.76498790000187;001;ARJA99;2019_Nov_25_1524;iat_vr;60.009349456230076;
1;KLEIDER;Gemacht;p;1;6;16;7;q;0;0.7813611000019591;001;ARJA99;2019_Nov_25_1524;iat_vr;60.009349456230076;
1;WASSER;Natur;q;1;7;17;1;q;1;0.7490877999989607;001;ARJA99;2019_Nov_25_1524;iat_vr;60.009349456230076;
1;BLUME;Natur;q;1;8;18;2;q;1;1.2151693999985582;001;ARJA99;2019_Nov_25_1524;iat_vr;60.009349456230076;
1;GEBÄUDE;Gemacht;p;1;9;19;5;p;1;0.6793676999986928;001;ARJA99;2019_Nov_25_1524;iat_vr;60.009349456230076;
;;;;;;;;;;;001;ARJA99;2019_Nov_25_1524;iat_vr;60.009349456230076;
2;NEGATIV;negativ;q;0;0;0;2;q;1;1.0906517999974312;001;ARJA99;2019_Nov_25_1524;iat_vr;60.009349456230076;
2;HERVORRAGEND;positiv;p;0;1;1;7;p;1;3.3795041000012134;001;ARJA99;2019_Nov_25_1524;iat_vr;60.009349456230076;
2;POSITIV;positiv;p;0;2;2;8;p;1;0.9293675999979314;001;ARJA99;2019_Nov_25_1524;iat_vr;60.009349456230076;
2;SCHLECHT;negativ;q;0;3;3;1;q;1;0.7634983999996621;001;ARJA99;2019_Nov_25_1524;iat_vr;60.009349456230076;
2;SCHLIMM;negativ;q;0;4;4;0;q;1;0.771595400001388;001;ARJA99;2019_Nov_25_1524;iat_vr;60.009349456230076;
2;SCHWACH;negativ;q;0;5;5;4;q;1;0.8468307000002824;001;ARJA99;2019_Nov_25_1524;iat_vr;60.009349456230076;
2;GUT;positiv;p;0;6;6;9;p;1;0.7487798000001931;001;ARJA99;2019_Nov_25_1524;iat_vr;60.009349456230076;
2;AUSGEZEICHNET;positiv;p;0;7;7;5;p;1;0.7573176000005333;001;ARJA99;2019_Nov_25_1524;iat_vr;60.009349456230076;
2;SCHÄDLICH;negativ;q;0;8;8;3;q;1;0.9962182999988727;001;ARJA99;2019_Nov_25_1524;iat_vr;60.009349456230076;
2;EINWANDFREI;positiv;p;0;9;9;6;p;1;1.1626249000000826;001;ARJA99;2019_Nov_25_1524;iat_vr;60.009349456230076;
2;SCHLIMM;negativ;q;1;0;10;0;q;1;0.7817351000012422;001;ARJA99;2019_Nov_25_1524;iat_vr;60.009349456230076;
2;NEGATIV;negativ;q;1;1;11;2;q;1;0.7144942000013543;001;ARJA99;2019_Nov_25_1524;iat_vr;60.009349456230076;
2;EINWANDFREI;positiv;p;1;2;12;6;p;1;0.8749061000016809;001;ARJA99;2019_Nov_25_1524;iat_vr;60.009349456230076;
2;SCHWACH;negativ;q;1;3;13;4;q;1;0.8152589999990596;001;ARJA99;2019_Nov_25_1524;iat_vr;60.009349456230076;
2;POSITIV;positiv;p;1;4;14;8;p;1;0.8252294000012625;001;ARJA99;2019_Nov_25_1524;iat_vr;60.009349456230076;
2;GUT;positiv;p;1;5;15;9;p;1;0.7329815000011877;001;ARJA99;2019_Nov_25_1524;iat_vr;60.009349456230076;
2;SCHÄDLICH;negativ;q;1;6;16;3;q;1;0.7419722999984515;001;ARJA99;2019_Nov_25_1524;iat_vr;60.009349456230076;
2;HERVORRAGEND;positiv;p;1;7;17;7;p;1;0.7286170000006678;001;ARJA99;2019_Nov_25_1524;iat_vr;60.009349456230076;
2;AUSGEZEICHNET;positiv;p;1;8;18;5;p;1;0.8263045999992755;001;ARJA99;2019_Nov_25_1524;iat_vr;60.009349456230076;
2;SCHLECHT;negativ;q;1;9;19;1;q;1;0.6479703999975754;001;ARJA99;2019_Nov_25_1524;iat_vr;60.009349456230076;
;;;;;;;;;;;001;ARJA99;2019_Nov_25_1524;iat_vr;60.009349456230076;
3;SCHÄDLICH;negativ;q;0;0;0;3;q;1;1.0709702000021935;001;ARJA99;2019_Nov_25_1524;iat_vr;60.009349456230076;
3;EINWANDFREI;positiv;p;0;1;1;6;q;0;0.9126804000006814;001;ARJA99;2019_Nov_25_1524;iat_vr;60.009349456230076;
3;WASSER;Natur;q;0;2;2;11;q;1;0.6152184000020497;001;ARJA99;2019_Nov_25_1524;iat_vr;60.009349456230076;
3;TIER;Natur;q;0;3;3;13;q;1;0.824177000002237;001;ARJA99;2019_Nov_25_1524;iat_vr;60.009349456230076;
3;STEIN;Natur;q;0;4;4;14;q;1;0.8483298999999533;001;ARJA99;2019_Nov_25_1524;iat_vr;60.009349456230076;
3;COMPUTER;Gemacht;p;0;5;5;18;p;1;0.5481567999995605;001;ARJA99;2019_Nov_25_1524;iat_vr;60.009349456230076;
3;GEBÄUDE;Gemacht;p;0;6;6;15;p;1;0.8975365000005695;001;ARJA99;2019_Nov_25_1524;iat_vr;60.009349456230076;
3;SCHLECHT;negativ;q;0;7;7;1;p;0;0.9313613000012992;001;ARJA99;2019_Nov_25_1524;iat_vr;60.009349456230076;
3;SCHWACH;negativ;q;0;8;8;4;q;1;1.181066799999826;001;ARJA99;2019_Nov_25_1524;iat_vr;60.009349456230076;
3;LAMPE;Gemacht;p;0;9;9;19;p;1;0.9649238000019977;001;ARJA99;2019_Nov_25_1524;iat_vr;60.009349456230076;
3;HERVORRAGEND;positiv;p;0;10;10;7;p;1;0.8449058000005607;001;ARJA99;2019_Nov_25_1524;iat_vr;60.009349456230076;
3;POSITIV;positiv;p;0;11;11;8;p;1;0.8139675999991596;001;ARJA99;2019_Nov_25_1524;iat_vr;60.009349456230076;
3;KLEIDER;Gemacht;p;0;12;12;17;p;1;0.7975197999985539;001;ARJA99;2019_Nov_25_1524;iat_vr;60.009349456230076;
3;BLUME;Natur;q;0;13;13;12;q;1;0.7660188999980164;001;ARJA99;2019_Nov_25_1524;iat_vr;60.009349456230076;
3;AUSGEZEICHNET;positiv;p;0;14;14;5;p;1;0.8111901999982365;001;ARJA99;2019_Nov_25_1524;iat_vr;60.009349456230076;
3;NEGATIV;negativ;q;0;15;15;2;q;1;0.6777848999990965;001;ARJA99;2019_Nov_25_1524;iat_vr;60.009349456230076;
3;BAUM;Natur;q;0;16;16;10;q;1;0.7816187999997055;001;ARJA99;2019_Nov_25_1524;iat_vr;60.009349456230076;
3;SCHLIMM;negativ;q;0;17;17;0;q;1;0.6647285999970336;001;ARJA99;2019_Nov_25_1524;iat_vr;60.009349456230076;
3;STADT;Gemacht;p;0;18;18;16;p;1;0.6808616999987862;001;ARJA99;2019_Nov_25_1524;iat_vr;60.009349456230076;
3;GUT;positiv;p;0;19;19;9;p;1;0.8274758000006841;001;ARJA99;2019_Nov_25_1524;iat_vr;60.009349456230076;
;;;;;;;;;;;001;ARJA99;2019_Nov_25_1524;iat_vr;60.009349456230076;
4;STADT;Gemacht;p;0;0;0;16;p;1;0.8538106000014523;001;ARJA99;2019_Nov_25_1524;iat_vr;60.009349456230076;
4;SCHLECHT;negativ;q;0;1;1;1;q;1;0.6620229000000108;001;ARJA99;2019_Nov_25_1524;iat_vr;60.009349456230076;
4;POSITIV;positiv;p;0;2;2;8;p;1;0.8057929999995395;001;ARJA99;2019_Nov_25_1524;iat_vr;60.009349456230076;
4;GEBÄUDE;Gemacht;p;0;3;3;15;p;1;0.8645907999998599;001;ARJA99;2019_Nov_25_1524;iat_vr;60.009349456230076;
4;AUSGEZEICHNET;positiv;p;0;4;4;5;p;1;0.7460409000013897;001;ARJA99;2019_Nov_25_1524;iat_vr;60.009349456230076;
4;SCHWACH;negativ;q;0;5;5;4;q;1;0.6485145000006014;001;ARJA99;2019_Nov_25_1524;iat_vr;60.009349456230076;
4;SCHLIMM;negativ;q;0;6;6;0;q;1;0.747995699999592;001;ARJA99;2019_Nov_25_1524;iat_vr;60.009349456230076;
4;BLUME;Natur;q;0;7;7;12;q;1;0.747622599999886;001;ARJA99;2019_Nov_25_1524;iat_vr;60.009349456230076;
4;NEGATIV;negativ;q;0;8;8;2;q;1;0.6623548999996274;001;ARJA99;2019_Nov_25_1524;iat_vr;60.009349456230076;
4;TIER;Natur;q;0;9;9;13;p;0;0.7813836999994237;001;ARJA99;2019_Nov_25_1524;iat_vr;60.009349456230076;
4;EINWANDFREI;positiv;p;0;10;10;6;p;1;1.6622218999982579;001;ARJA99;2019_Nov_25_1524;iat_vr;60.009349456230076;
4;GUT;positiv;p;0;11;11;9;p;1;0.8006275999978243;001;ARJA99;2019_Nov_25_1524;iat_vr;60.009349456230076;
4;KLEIDER;Gemacht;p;0;12;12;17;p;1;0.97922440000184;001;ARJA99;2019_Nov_25_1524;iat_vr;60.009349456230076;
4;STEIN;Natur;q;0;13;13;14;q;1;0.660608999998658;001;ARJA99;2019_Nov_25_1524;iat_vr;60.009349456230076;
4;HERVORRAGEND;positiv;p;0;14;14;7;p;1;0.6747758999990765;001;ARJA99;2019_Nov_25_1524;iat_vr;60.009349456230076;
4;LAMPE;Gemacht;p;0;15;15;19;p;1;1.0775675000004412;001;ARJA99;2019_Nov_25_1524;iat_vr;60.009349456230076;
4;COMPUTER;Gemacht;p;0;16;16;18;p;1;0.6622425000023213;001;ARJA99;2019_Nov_25_1524;iat_vr;60.009349456230076;
4;WASSER;Natur;q;0;17;17;11;q;1;0.7150077000005695;001;ARJA99;2019_Nov_25_1524;iat_vr;60.009349456230076;
4;SCHÄDLICH;negativ;q;0;18;18;3;q;1;1.0303346000000602;001;ARJA99;2019_Nov_25_1524;iat_vr;60.009349456230076;
4;BAUM;Natur;q;0;19;19;10;q;1;0.5654070000018692;001;ARJA99;2019_Nov_25_1524;iat_vr;60.009349456230076;
4;GUT;positiv;p;1;0;20;9;p;1;0.6939077000024554;001;ARJA99;2019_Nov_25_1524;iat_vr;60.009349456230076;
4;STADT;Gemacht;p;1;1;21;16;p;1;0.7822971999994479;001;ARJA99;2019_Nov_25_1524;iat_vr;60.009349456230076;
4;EINWANDFREI;positiv;p;1;2;22;6;p;1;0.8949001000000862;001;ARJA99;2019_Nov_25_1524;iat_vr;60.009349456230076;
4;HERVORRAGEND;positiv;p;1;3;23;7;p;1;1.012009299996862;001;ARJA99;2019_Nov_25_1524;iat_vr;60.009349456230076;
4;GEBÄUDE;Gemacht;p;1;4;24;15;p;1;0.6980468000001565;001;ARJA99;2019_Nov_25_1524;iat_vr;60.009349456230076;
4;STEIN;Natur;q;1;5;25;14;q;1;0.6492742000009457;001;ARJA99;2019_Nov_25_1524;iat_vr;60.009349456230076;
4;SCHLIMM;negativ;q;1;6;26;0;q;1;0.9524080000010144;001;ARJA99;2019_Nov_25_1524;iat_vr;60.009349456230076;
4;BLUME;Natur;q;1;7;27;12;q;1;0.7447039999970002;001;ARJA99;2019_Nov_25_1524;iat_vr;60.009349456230076;
4;AUSGEZEICHNET;positiv;p;1;8;28;5;p;1;0.6787299999996321;001;ARJA99;2019_Nov_25_1524;iat_vr;60.009349456230076;
4;KLEIDER;Gemacht;p;1;9;29;17;p;1;1.0643567000006442;001;ARJA99;2019_Nov_25_1524;iat_vr;60.009349456230076;
4;COMPUTER;Gemacht;p;1;10;30;18;p;1;0.6311330999997153;001;ARJA99;2019_Nov_25_1524;iat_vr;60.009349456230076;
4;SCHÄDLICH;negativ;q;1;11;31;3;q;1;1.5807657000004838;001;ARJA99;2019_Nov_25_1524;iat_vr;60.009349456230076;
4;LAMPE;Gemacht;p;1;12;32;19;p;1;0.8643956000014441;001;ARJA99;2019_Nov_25_1524;iat_vr;60.009349456230076;
4;SCHWACH;negativ;q;1;13;33;4;q;1;0.7442526999984693;001;ARJA99;2019_Nov_25_1524;iat_vr;60.009349456230076;
4;TIER;Natur;q;1;14;34;13;q;1;0.6815519999981916;001;ARJA99;2019_Nov_25_1524;iat_vr;60.009349456230076;
4;WASSER;Natur;q;1;15;35;11;q;1;0.6149305999970238;001;ARJA99;2019_Nov_25_1524;iat_vr;60.009349456230076;
4;NEGATIV;negativ;q;1;16;36;2;q;1;0.7459708000023966;001;ARJA99;2019_Nov_25_1524;iat_vr;60.009349456230076;
4;SCHLECHT;negativ;q;1;17;37;1;q;1;0.6821490000002086;001;ARJA99;2019_Nov_25_1524;iat_vr;60.009349456230076;
4;BAUM;Natur;q;1;18;38;10;q;1;0.7159488999968744;001;ARJA99;2019_Nov_25_1524;iat_vr;60.009349456230076;
4;POSITIV;positiv;p;1;19;39;8;p;1;0.6989630999996734;001;ARJA99;2019_Nov_25_1524;iat_vr;60.009349456230076;
;;;;;;;;;;;001;ARJA99;2019_Nov_25_1524;iat_vr;60.009349456230076;
5;STADT;Gemacht;q;0;0;0;6;q;1;0.8754163999983575;001;ARJA99;2019_Nov_25_1524;iat_vr;60.009349456230076;
5;BLUME;Natur;p;0;1;1;2;p;1;0.7819034999993164;001;ARJA99;2019_Nov_25_1524;iat_vr;60.009349456230076;
5;BAUM;Natur;p;0;2;2;0;p;1;0.8161343000028864;001;ARJA99;2019_Nov_25_1524;iat_vr;60.009349456230076;
5;TIER;Natur;p;0;3;3;3;p;1;0.8826454000009107;001;ARJA99;2019_Nov_25_1524;iat_vr;60.009349456230076;
5;COMPUTER;Gemacht;q;0;4;4;8;q;1;0.6633490000021993;001;ARJA99;2019_Nov_25_1524;iat_vr;60.009349456230076;
5;WASSER;Natur;p;0;5;5;1;p;1;0.712696300000971;001;ARJA99;2019_Nov_25_1524;iat_vr;60.009349456230076;
5;GEBÄUDE;Gemacht;q;0;6;6;5;p;0;0.9988267000007909;001;ARJA99;2019_Nov_25_1524;iat_vr;60.009349456230076;
5;KLEIDER;Gemacht;q;0;7;7;7;p;0;0.7821377000000211;001;ARJA99;2019_Nov_25_1524;iat_vr;60.009349456230076;
5;LAMPE;Gemacht;q;0;8;8;9;q;1;0.2808938999987731;001;ARJA99;2019_Nov_25_1524;iat_vr;60.009349456230076;
5;STEIN;Natur;p;0;9;9;4;p;1;1.3137299999980314;001;ARJA99;2019_Nov_25_1524;iat_vr;60.009349456230076;
5;COMPUTER;Gemacht;q;1;0;10;8;q;1;0.6795523000000685;001;ARJA99;2019_Nov_25_1524;iat_vr;60.009349456230076;
5;BAUM;Natur;p;1;1;11;0;p;1;0.9810321999975713;001;ARJA99;2019_Nov_25_1524;iat_vr;60.009349456230076;
5;WASSER;Natur;p;1;2;12;1;p;1;0.8154233000022941;001;ARJA99;2019_Nov_25_1524;iat_vr;60.009349456230076;
5;KLEIDER;Gemacht;q;1;3;13;7;q;1;0.6625011000032828;001;ARJA99;2019_Nov_25_1524;iat_vr;60.009349456230076;
5;GEBÄUDE;Gemacht;q;1;4;14;5;p;0;1.277148400000442;001;ARJA99;2019_Nov_25_1524;iat_vr;60.009349456230076;
5;STEIN;Natur;p;1;5;15;4;q;0;1.4650083000015002;001;ARJA99;2019_Nov_25_1524;iat_vr;60.009349456230076;
5;LAMPE;Gemacht;q;1;6;16;9;p;0;2.0635751000008895;001;ARJA99;2019_Nov_25_1524;iat_vr;60.009349456230076;
5;TIER;Natur;p;1;7;17;3;p;1;0.7823087000033411;001;ARJA99;2019_Nov_25_1524;iat_vr;60.009349456230076;
5;STADT;Gemacht;q;1;8;18;6;q;1;1.0644743000011658;001;ARJA99;2019_Nov_25_1524;iat_vr;60.009349456230076;
5;BLUME;Natur;p;1;9;19;2;p;1;0.6809123999992153;001;ARJA99;2019_Nov_25_1524;iat_vr;60.009349456230076;
;;;;;;;;;;;001;ARJA99;2019_Nov_25_1524;iat_vr;60.009349456230076;
6;SCHLECHT;negativ;q;0;0;0;11;q;1;2.6123404999998456;001;ARJA99;2019_Nov_25_1524;iat_vr;60.009349456230076;
6;KLEIDER;Gemacht;q;0;1;1;7;q;1;1.3806306999977096;001;ARJA99;2019_Nov_25_1524;iat_vr;60.009349456230076;
6;COMPUTER;Gemacht;q;0;2;2;8;q;1;0.5630424000009953;001;ARJA99;2019_Nov_25_1524;iat_vr;60.009349456230076;
6;SCHÄDLICH;negativ;q;0;3;3;13;q;1;0.5963168999987829;001;ARJA99;2019_Nov_25_1524;iat_vr;60.009349456230076;
6;NEGATIV;negativ;q;0;4;4;12;q;1;0.6796835999994073;001;ARJA99;2019_Nov_25_1524;iat_vr;60.009349456230076;
6;LAMPE;Gemacht;q;0;5;5;9;q;1;0.8651836999997613;001;ARJA99;2019_Nov_25_1524;iat_vr;60.009349456230076;
6;TIER;Natur;p;0;6;6;3;p;1;0.6645862000004854;001;ARJA99;2019_Nov_25_1524;iat_vr;60.009349456230076;
6;SCHLIMM;negativ;q;0;7;7;10;q;1;0.6934389999987616;001;ARJA99;2019_Nov_25_1524;iat_vr;60.009349456230076;
6;GUT;positiv;p;0;8;8;19;p;1;0.6485946000029799;001;ARJA99;2019_Nov_25_1524;iat_vr;60.009349456230076;
6;GEBÄUDE;Gemacht;q;0;9;9;5;p;0;0.6651841000020795;001;ARJA99;2019_Nov_25_1524;iat_vr;60.009349456230076;
6;WASSER;Natur;p;0;10;10;1;p;1;1.098327400002745;001;ARJA99;2019_Nov_25_1524;iat_vr;60.009349456230076;
6;AUSGEZEICHNET;positiv;p;0;11;11;15;p;1;0.7278685999990557;001;ARJA99;2019_Nov_25_1524;iat_vr;60.009349456230076;
6;STADT;Gemacht;q;0;12;12;6;q;1;1.2320466999990458;001;ARJA99;2019_Nov_25_1524;iat_vr;60.009349456230076;
6;SCHWACH;negativ;q;0;13;13;14;q;1;0.6144600999978138;001;ARJA99;2019_Nov_25_1524;iat_vr;60.009349456230076;
6;POSITIV;positiv;p;0;14;14;18;p;1;0.6804959000000963;001;ARJA99;2019_Nov_25_1524;iat_vr;60.009349456230076;
6;HERVORRAGEND;positiv;p;0;15;15;17;p;1;0.945223899998382;001;ARJA99;2019_Nov_25_1524;iat_vr;60.009349456230076;
6;STEIN;Natur;p;0;16;16;4;p;1;1.481984400001238;001;ARJA99;2019_Nov_25_1524;iat_vr;60.009349456230076;
6;BLUME;Natur;p;0;17;17;2;p;1;0.6830375999998068;001;ARJA99;2019_Nov_25_1524;iat_vr;60.009349456230076;
6;EINWANDFREI;positiv;p;0;18;18;16;p;1;0.7797684999968624;001;ARJA99;2019_Nov_25_1524;iat_vr;60.009349456230076;
6;BAUM;Natur;p;0;19;19;0;p;1;0.6478884999996808;001;ARJA99;2019_Nov_25_1524;iat_vr;60.009349456230076;
;;;;;;;;;;;001;ARJA99;2019_Nov_25_1524;iat_vr;60.009349456230076;
7;AUSGEZEICHNET;positiv;p;0;0;0;15;p;1;0.7453731999994488;001;ARJA99;2019_Nov_25_1524;iat_vr;60.009349456230076;
7;POSITIV;positiv;p;0;1;1;18;p;1;0.5299626000014541;001;ARJA99;2019_Nov_25_1524;iat_vr;60.009349456230076;
7;TIER;Natur;p;0;2;2;3;p;1;0.6251879999981611;001;ARJA99;2019_Nov_25_1524;iat_vr;60.009349456230076;
7;SCHLIMM;negativ;q;0;3;3;10;q;1;0.8642461999988882;001;ARJA99;2019_Nov_25_1524;iat_vr;60.009349456230076;
7;STEIN;Natur;p;0;4;4;4;p;1;0.6643445000008796;001;ARJA99;2019_Nov_25_1524;iat_vr;60.009349456230076;
7;BLUME;Natur;p;0;5;5;2;p;1;0.5970467000006465;001;ARJA99;2019_Nov_25_1524;iat_vr;60.009349456230076;
7;KLEIDER;Gemacht;q;0;6;6;7;q;1;0.7281727999979921;001;ARJA99;2019_Nov_25_1524;iat_vr;60.009349456230076;
7;EINWANDFREI;positiv;p;0;7;7;16;p;1;0.7448073999985354;001;ARJA99;2019_Nov_25_1524;iat_vr;60.009349456230076;
7;COMPUTER;Gemacht;q;0;8;8;8;p;0;0.9312458999993396;001;ARJA99;2019_Nov_25_1524;iat_vr;60.009349456230076;
7;SCHLECHT;negativ;q;0;9;9;11;q;1;1.112118199998804;001;ARJA99;2019_Nov_25_1524;iat_vr;60.009349456230076;
7;GUT;positiv;p;0;10;10;19;p;1;0.795237400001497;001;ARJA99;2019_Nov_25_1524;iat_vr;60.009349456230076;
7;SCHÄDLICH;negativ;q;0;11;11;13;q;1;0.8149080000002868;001;ARJA99;2019_Nov_25_1524;iat_vr;60.009349456230076;
7;LAMPE;Gemacht;q;0;12;12;9;q;1;0.9481521999987308;001;ARJA99;2019_Nov_25_1524;iat_vr;60.009349456230076;
7;WASSER;Natur;p;0;13;13;1;p;1;0.7478618999994069;001;ARJA99;2019_Nov_25_1524;iat_vr;60.009349456230076;
7;GEBÄUDE;Gemacht;q;0;14;14;5;q;1;1.1976504000012937;001;ARJA99;2019_Nov_25_1524;iat_vr;60.009349456230076;
7;SCHWACH;negativ;q;0;15;15;14;q;1;0.9314670999992813;001;ARJA99;2019_Nov_25_1524;iat_vr;60.009349456230076;
7;STADT;Gemacht;q;0;16;16;6;q;1;0.7472601000008581;001;ARJA99;2019_Nov_25_1524;iat_vr;60.009349456230076;
7;HERVORRAGEND;positiv;p;0;17;17;17;p;1;0.6271574999991572;001;ARJA99;2019_Nov_25_1524;iat_vr;60.009349456230076;
7;BAUM;Natur;p;0;18;18;0;p;1;0.6653261999999813;001;ARJA99;2019_Nov_25_1524;iat_vr;60.009349456230076;
7;NEGATIV;negativ;q;0;19;19;12;q;1;0.7636044999999285;001;ARJA99;2019_Nov_25_1524;iat_vr;60.009349456230076;
7;BAUM;Natur;p;1;0;20;0;p;1;0.8481159000002663;001;ARJA99;2019_Nov_25_1524;iat_vr;60.009349456230076;
7;GUT;positiv;p;1;1;21;19;p;1;0.7313864000025205;001;ARJA99;2019_Nov_25_1524;iat_vr;60.009349456230076;
7;SCHLECHT;negativ;q;1;2;22;11;q;1;0.6153034999988449;001;ARJA99;2019_Nov_25_1524;iat_vr;60.009349456230076;
7;TIER;Natur;p;1;3;23;3;p;1;0.5144063999978243;001;ARJA99;2019_Nov_25_1524;iat_vr;60.009349456230076;
7;NEGATIV;negativ;q;1;4;24;12;q;1;0.7977566999979899;001;ARJA99;2019_Nov_25_1524;iat_vr;60.009349456230076;
7;BLUME;Natur;p;1;5;25;2;p;1;0.5814199999986158;001;ARJA99;2019_Nov_25_1524;iat_vr;60.009349456230076;
7;EINWANDFREI;positiv;p;1;6;26;16;p;1;0.678841699998884;001;ARJA99;2019_Nov_25_1524;iat_vr;60.009349456230076;
7;SCHÄDLICH;negativ;q;1;7;27;13;q;1;0.9402681999999913;001;ARJA99;2019_Nov_25_1524;iat_vr;60.009349456230076;
7;SCHLIMM;negativ;q;1;8;28;10;q;1;0.4966714999973192;001;ARJA99;2019_Nov_25_1524;iat_vr;60.009349456230076;
7;HERVORRAGEND;positiv;p;1;9;29;17;p;1;0.5789172000004328;001;ARJA99;2019_Nov_25_1524;iat_vr;60.009349456230076;
7;LAMPE;Gemacht;q;1;10;30;9;q;1;0.732060400001501;001;ARJA99;2019_Nov_25_1524;iat_vr;60.009349456230076;
7;AUSGEZEICHNET;positiv;p;1;11;31;15;p;1;0.6396653999981936;001;ARJA99;2019_Nov_25_1524;iat_vr;60.009349456230076;
7;POSITIV;positiv;p;1;12;32;18;q;0;0.5143570000000182;001;ARJA99;2019_Nov_25_1524;iat_vr;60.009349456230076;
7;SCHWACH;negativ;q;1;13;33;14;q;1;0.7479816999984905;001;ARJA99;2019_Nov_25_1524;iat_vr;60.009349456230076;
7;KLEIDER;Gemacht;q;1;14;34;7;p;0;0.6625075999982073;001;ARJA99;2019_Nov_25_1524;iat_vr;60.009349456230076;
7;STEIN;Natur;p;1;15;35;4;p;1;0.7157387000006565;001;ARJA99;2019_Nov_25_1524;iat_vr;60.009349456230076;
7;STADT;Gemacht;q;1;16;36;6;q;1;0.7302027999976417;001;ARJA99;2019_Nov_25_1524;iat_vr;60.009349456230076;
7;WASSER;Natur;p;1;17;37;1;p;1;0.6982586000012816;001;ARJA99;2019_Nov_25_1524;iat_vr;60.009349456230076;
7;COMPUTER;Gemacht;q;1;18;38;8;p;0;1.1639697999999044;001;ARJA99;2019_Nov_25_1524;iat_vr;60.009349456230076;
7;GEBÄUDE;Gemacht;q;1;19;39;5;q;1;2.080079899998964;001;ARJA99;2019_Nov_25_1524;iat_vr;60.009349456230076;
;;;;;;;;;;;001;ARJA99;2019_Nov_25_1524;iat_vr;60.009349456230076;
