Block;Word;Category;CorrResp;trials.thisRepN;trials.thisTrialN;trials.thisN;trials.thisIndex;key_resp_2.keys;key_resp_2.corr;key_resp_2.rt;session;participant;date;expName;frameRate;
1;TIER;Natur;q;0;0;0;3;q;1;3.4105257999999594;001;ARLW94;2019_Nov_26_1050;iat_vr;60.025162548229545;
1;BAUM;Natur;q;0;1;1;0;q;1;1.2335468999999648;001;ARLW94;2019_Nov_26_1050;iat_vr;60.025162548229545;
1;COMPUTER;Gemacht;p;0;2;2;8;p;1;1.0168604000000414;001;ARLW94;2019_Nov_26_1050;iat_vr;60.025162548229545;
1;LAMPE;Gemacht;p;0;3;3;9;p;1;1.1169436000000132;001;ARLW94;2019_Nov_26_1050;iat_vr;60.025162548229545;
1;STADT;Gemacht;p;0;4;4;6;p;1;1.0502131000002919;001;ARLW94;2019_Nov_26_1050;iat_vr;60.025162548229545;
1;STEIN;Natur;q;0;5;5;4;q;1;0.8835252999997465;001;ARLW94;2019_Nov_26_1050;iat_vr;60.025162548229545;
1;WASSER;Natur;q;0;6;6;1;q;1;0.7835329999998066;001;ARLW94;2019_Nov_26_1050;iat_vr;60.025162548229545;
1;KLEIDER;Gemacht;p;0;7;7;7;p;1;0.8835447000001295;001;ARLW94;2019_Nov_26_1050;iat_vr;60.025162548229545;
1;GEBÄUDE;Gemacht;p;0;8;8;5;p;1;1.0002675999994608;001;ARLW94;2019_Nov_26_1050;iat_vr;60.025162548229545;
1;BLUME;Natur;q;0;9;9;2;q;1;0.7668131000000358;001;ARLW94;2019_Nov_26_1050;iat_vr;60.025162548229545;
1;STADT;Gemacht;p;1;0;10;6;p;1;0.6836659999999029;001;ARLW94;2019_Nov_26_1050;iat_vr;60.025162548229545;
1;GEBÄUDE;Gemacht;p;1;1;11;5;p;1;0.8189525999996476;001;ARLW94;2019_Nov_26_1050;iat_vr;60.025162548229545;
1;COMPUTER;Gemacht;p;1;2;12;8;p;1;0.6009205000000293;001;ARLW94;2019_Nov_26_1050;iat_vr;60.025162548229545;
1;LAMPE;Gemacht;p;1;3;13;9;p;1;1.3307563999997;001;ARLW94;2019_Nov_26_1050;iat_vr;60.025162548229545;
1;STEIN;Natur;q;1;4;14;4;q;1;0.6320557999997618;001;ARLW94;2019_Nov_26_1050;iat_vr;60.025162548229545;
1;BAUM;Natur;q;1;5;15;0;q;1;0.6654154999996535;001;ARLW94;2019_Nov_26_1050;iat_vr;60.025162548229545;
1;TIER;Natur;q;1;6;16;3;q;1;0.8321159999995871;001;ARLW94;2019_Nov_26_1050;iat_vr;60.025162548229545;
1;KLEIDER;Gemacht;p;1;7;17;7;p;1;0.6466803000002983;001;ARLW94;2019_Nov_26_1050;iat_vr;60.025162548229545;
1;BLUME;Natur;q;1;8;18;2;q;1;0.9640052000004289;001;ARLW94;2019_Nov_26_1050;iat_vr;60.025162548229545;
1;WASSER;Natur;q;1;9;19;1;q;1;0.729911099999299;001;ARLW94;2019_Nov_26_1050;iat_vr;60.025162548229545;
;;;;;;;;;;;001;ARLW94;2019_Nov_26_1050;iat_vr;60.025162548229545;
2;SCHÄDLICH;negativ;q;0;0;0;3;q;1;2.1930299000005107;001;ARLW94;2019_Nov_26_1050;iat_vr;60.025162548229545;
2;SCHLIMM;negativ;q;0;1;1;0;q;1;0.6690809000001536;001;ARLW94;2019_Nov_26_1050;iat_vr;60.025162548229545;
2;POSITIV;positiv;p;0;2;2;8;p;1;0.8093116000000009;001;ARLW94;2019_Nov_26_1050;iat_vr;60.025162548229545;
2;SCHWACH;negativ;q;0;3;3;4;q;1;0.8645128999996814;001;ARLW94;2019_Nov_26_1050;iat_vr;60.025162548229545;
2;NEGATIV;negativ;q;0;4;4;2;q;1;2.51415470000029;001;ARLW94;2019_Nov_26_1050;iat_vr;60.025162548229545;
2;GUT;positiv;p;0;5;5;9;p;1;0.8855309999999008;001;ARLW94;2019_Nov_26_1050;iat_vr;60.025162548229545;
2;AUSGEZEICHNET;positiv;p;0;6;6;5;p;1;0.712672399999974;001;ARLW94;2019_Nov_26_1050;iat_vr;60.025162548229545;
2;HERVORRAGEND;positiv;p;0;7;7;7;p;1;1.3595746000000872;001;ARLW94;2019_Nov_26_1050;iat_vr;60.025162548229545;
2;SCHLECHT;negativ;q;0;8;8;1;q;1;0.7634451000003537;001;ARLW94;2019_Nov_26_1050;iat_vr;60.025162548229545;
2;EINWANDFREI;positiv;p;0;9;9;6;p;1;0.6765027000001282;001;ARLW94;2019_Nov_26_1050;iat_vr;60.025162548229545;
2;GUT;positiv;p;1;0;10;9;p;1;1.115968399999474;001;ARLW94;2019_Nov_26_1050;iat_vr;60.025162548229545;
2;HERVORRAGEND;positiv;p;1;1;11;7;p;1;0.7166564999997718;001;ARLW94;2019_Nov_26_1050;iat_vr;60.025162548229545;
2;SCHÄDLICH;negativ;q;1;2;12;3;q;1;0.7794966000001295;001;ARLW94;2019_Nov_26_1050;iat_vr;60.025162548229545;
2;SCHLECHT;negativ;q;1;3;13;1;q;1;1.3106964999997217;001;ARLW94;2019_Nov_26_1050;iat_vr;60.025162548229545;
2;AUSGEZEICHNET;positiv;p;1;4;14;5;p;1;0.8355462999998053;001;ARLW94;2019_Nov_26_1050;iat_vr;60.025162548229545;
2;SCHWACH;negativ;q;1;5;15;4;q;1;0.7954671000006783;001;ARLW94;2019_Nov_26_1050;iat_vr;60.025162548229545;
2;EINWANDFREI;positiv;p;1;6;16;6;p;1;1.8457139000001916;001;ARLW94;2019_Nov_26_1050;iat_vr;60.025162548229545;
2;SCHLIMM;negativ;q;1;7;17;0;q;1;0.8808375999997224;001;ARLW94;2019_Nov_26_1050;iat_vr;60.025162548229545;
2;NEGATIV;negativ;q;1;8;18;2;q;1;0.9135373999997682;001;ARLW94;2019_Nov_26_1050;iat_vr;60.025162548229545;
2;POSITIV;positiv;p;1;9;19;8;p;1;0.6815580000002228;001;ARLW94;2019_Nov_26_1050;iat_vr;60.025162548229545;
;;;;;;;;;;;001;ARLW94;2019_Nov_26_1050;iat_vr;60.025162548229545;
3;SCHWACH;negativ;q;0;0;0;4;q;1;1.1973973000003753;001;ARLW94;2019_Nov_26_1050;iat_vr;60.025162548229545;
3;NEGATIV;negativ;q;0;1;1;2;q;1;2.096275699999751;001;ARLW94;2019_Nov_26_1050;iat_vr;60.025162548229545;
3;AUSGEZEICHNET;positiv;p;0;2;2;5;p;1;1.4626103999999032;001;ARLW94;2019_Nov_26_1050;iat_vr;60.025162548229545;
3;TIER;Natur;q;0;3;3;13;q;1;1.514515100000608;001;ARLW94;2019_Nov_26_1050;iat_vr;60.025162548229545;
3;BAUM;Natur;q;0;4;4;10;q;1;0.6650118999996266;001;ARLW94;2019_Nov_26_1050;iat_vr;60.025162548229545;
3;GUT;positiv;p;0;5;5;9;p;1;0.965037900000425;001;ARLW94;2019_Nov_26_1050;iat_vr;60.025162548229545;
3;STADT;Gemacht;p;0;6;6;16;p;1;1.5799199999992197;001;ARLW94;2019_Nov_26_1050;iat_vr;60.025162548229545;
3;SCHLECHT;negativ;q;0;7;7;1;q;1;1.0128856000001178;001;ARLW94;2019_Nov_26_1050;iat_vr;60.025162548229545;
3;BLUME;Natur;q;0;8;8;12;q;1;1.3486103000004732;001;ARLW94;2019_Nov_26_1050;iat_vr;60.025162548229545;
3;STEIN;Natur;q;0;9;9;14;q;1;0.7310883000000103;001;ARLW94;2019_Nov_26_1050;iat_vr;60.025162548229545;
3;EINWANDFREI;positiv;p;0;10;10;6;p;1;1.179067799999757;001;ARLW94;2019_Nov_26_1050;iat_vr;60.025162548229545;
3;SCHLIMM;negativ;q;0;11;11;0;q;1;0.9189217000002827;001;ARLW94;2019_Nov_26_1050;iat_vr;60.025162548229545;
3;POSITIV;positiv;p;0;12;12;8;p;1;0.7185718999999153;001;ARLW94;2019_Nov_26_1050;iat_vr;60.025162548229545;
3;LAMPE;Gemacht;p;0;13;13;19;p;1;0.6986424000006082;001;ARLW94;2019_Nov_26_1050;iat_vr;60.025162548229545;
3;KLEIDER;Gemacht;p;0;14;14;17;p;1;0.5649143000000549;001;ARLW94;2019_Nov_26_1050;iat_vr;60.025162548229545;
3;COMPUTER;Gemacht;p;0;15;15;18;p;1;0.5135933999999907;001;ARLW94;2019_Nov_26_1050;iat_vr;60.025162548229545;
3;SCHÄDLICH;negativ;q;0;16;16;3;q;1;0.8304432000004454;001;ARLW94;2019_Nov_26_1050;iat_vr;60.025162548229545;
3;GEBÄUDE;Gemacht;p;0;17;17;15;p;1;1.0136634999998932;001;ARLW94;2019_Nov_26_1050;iat_vr;60.025162548229545;
3;WASSER;Natur;q;0;18;18;11;q;1;0.6634295999992901;001;ARLW94;2019_Nov_26_1050;iat_vr;60.025162548229545;
3;HERVORRAGEND;positiv;p;0;19;19;7;p;1;1.0461569999997664;001;ARLW94;2019_Nov_26_1050;iat_vr;60.025162548229545;
;;;;;;;;;;;001;ARLW94;2019_Nov_26_1050;iat_vr;60.025162548229545;
4;STEIN;Natur;q;0;0;0;14;q;1;1.3305043000000296;001;ARLW94;2019_Nov_26_1050;iat_vr;60.025162548229545;
4;POSITIV;positiv;p;0;1;1;8;p;1;0.8288455000001704;001;ARLW94;2019_Nov_26_1050;iat_vr;60.025162548229545;
4;HERVORRAGEND;positiv;p;0;2;2;7;p;1;2.0120633999995334;001;ARLW94;2019_Nov_26_1050;iat_vr;60.025162548229545;
4;BAUM;Natur;q;0;3;3;10;q;1;3.0149366000005102;001;ARLW94;2019_Nov_26_1050;iat_vr;60.025162548229545;
4;KLEIDER;Gemacht;p;0;4;4;17;p;1;0.6481318999994983;001;ARLW94;2019_Nov_26_1050;iat_vr;60.025162548229545;
4;WASSER;Natur;q;0;5;5;11;q;1;0.7991245000002891;001;ARLW94;2019_Nov_26_1050;iat_vr;60.025162548229545;
4;SCHWACH;negativ;q;0;6;6;4;q;1;0.8841427999996085;001;ARLW94;2019_Nov_26_1050;iat_vr;60.025162548229545;
4;SCHÄDLICH;negativ;q;0;7;7;3;q;1;0.5524747999997999;001;ARLW94;2019_Nov_26_1050;iat_vr;60.025162548229545;
4;SCHLIMM;negativ;q;0;8;8;0;q;1;0.6686119000005419;001;ARLW94;2019_Nov_26_1050;iat_vr;60.025162548229545;
4;BLUME;Natur;q;0;9;9;12;q;1;1.5144359999994776;001;ARLW94;2019_Nov_26_1050;iat_vr;60.025162548229545;
4;TIER;Natur;q;0;10;10;13;q;1;0.6684406999993371;001;ARLW94;2019_Nov_26_1050;iat_vr;60.025162548229545;
4;GUT;positiv;p;0;11;11;9;q;0;0.8147517999996126;001;ARLW94;2019_Nov_26_1050;iat_vr;60.025162548229545;
4;NEGATIV;negativ;q;0;12;12;2;q;1;2.264836899999864;001;ARLW94;2019_Nov_26_1050;iat_vr;60.025162548229545;
4;LAMPE;Gemacht;p;0;13;13;19;p;1;0.9348515000001498;001;ARLW94;2019_Nov_26_1050;iat_vr;60.025162548229545;
4;EINWANDFREI;positiv;p;0;14;14;6;p;1;1.4634366000000227;001;ARLW94;2019_Nov_26_1050;iat_vr;60.025162548229545;
4;SCHLECHT;negativ;q;0;15;15;1;q;1;1.8481583000002502;001;ARLW94;2019_Nov_26_1050;iat_vr;60.025162548229545;
4;STADT;Gemacht;p;0;16;16;16;p;1;0.8118268999996872;001;ARLW94;2019_Nov_26_1050;iat_vr;60.025162548229545;
4;COMPUTER;Gemacht;p;0;17;17;18;p;1;0.6642452000005505;001;ARLW94;2019_Nov_26_1050;iat_vr;60.025162548229545;
4;AUSGEZEICHNET;positiv;p;0;18;18;5;p;1;1.1650893000005453;001;ARLW94;2019_Nov_26_1050;iat_vr;60.025162548229545;
4;GEBÄUDE;Gemacht;p;0;19;19;15;p;1;1.2300556000000142;001;ARLW94;2019_Nov_26_1050;iat_vr;60.025162548229545;
4;SCHLIMM;negativ;q;1;0;20;0;q;1;0.9979468999999881;001;ARLW94;2019_Nov_26_1050;iat_vr;60.025162548229545;
4;STADT;Gemacht;p;1;1;21;16;p;1;1.5615930000003573;001;ARLW94;2019_Nov_26_1050;iat_vr;60.025162548229545;
4;WASSER;Natur;q;1;2;22;11;q;1;0.6490135999993072;001;ARLW94;2019_Nov_26_1050;iat_vr;60.025162548229545;
4;LAMPE;Gemacht;p;1;3;23;19;p;1;1.56542779999927;001;ARLW94;2019_Nov_26_1050;iat_vr;60.025162548229545;
4;NEGATIV;negativ;q;1;4;24;2;q;1;0.9146449999998367;001;ARLW94;2019_Nov_26_1050;iat_vr;60.025162548229545;
4;SCHWACH;negativ;q;1;5;25;4;q;1;0.6289444000003641;001;ARLW94;2019_Nov_26_1050;iat_vr;60.025162548229545;
4;BLUME;Natur;q;1;6;26;12;q;1;0.9122957999998107;001;ARLW94;2019_Nov_26_1050;iat_vr;60.025162548229545;
4;GEBÄUDE;Gemacht;p;1;7;27;15;p;1;0.8294730000006894;001;ARLW94;2019_Nov_26_1050;iat_vr;60.025162548229545;
4;HERVORRAGEND;positiv;p;1;8;28;7;p;1;0.6964096000001518;001;ARLW94;2019_Nov_26_1050;iat_vr;60.025162548229545;
4;SCHLECHT;negativ;q;1;9;29;1;q;1;0.6480824000000212;001;ARLW94;2019_Nov_26_1050;iat_vr;60.025162548229545;
4;COMPUTER;Gemacht;p;1;10;30;18;p;1;1.262800900000002;001;ARLW94;2019_Nov_26_1050;iat_vr;60.025162548229545;
4;BAUM;Natur;q;1;11;31;10;q;1;0.8148274000004676;001;ARLW94;2019_Nov_26_1050;iat_vr;60.025162548229545;
4;KLEIDER;Gemacht;p;1;12;32;17;p;1;1.0488562999998976;001;ARLW94;2019_Nov_26_1050;iat_vr;60.025162548229545;
4;GUT;positiv;p;1;13;33;9;p;1;1.4138815000005707;001;ARLW94;2019_Nov_26_1050;iat_vr;60.025162548229545;
4;STEIN;Natur;q;1;14;34;14;q;1;0.781429599999683;001;ARLW94;2019_Nov_26_1050;iat_vr;60.025162548229545;
4;AUSGEZEICHNET;positiv;p;1;15;35;5;p;1;0.809337300000152;001;ARLW94;2019_Nov_26_1050;iat_vr;60.025162548229545;
4;TIER;Natur;q;1;16;36;13;q;1;0.9645680000003267;001;ARLW94;2019_Nov_26_1050;iat_vr;60.025162548229545;
4;SCHÄDLICH;negativ;q;1;17;37;3;p;0;1.4452732999998261;001;ARLW94;2019_Nov_26_1050;iat_vr;60.025162548229545;
4;EINWANDFREI;positiv;p;1;18;38;6;p;1;0.7609626000003118;001;ARLW94;2019_Nov_26_1050;iat_vr;60.025162548229545;
4;POSITIV;positiv;p;1;19;39;8;p;1;1.7476778000000195;001;ARLW94;2019_Nov_26_1050;iat_vr;60.025162548229545;
;;;;;;;;;;;001;ARLW94;2019_Nov_26_1050;iat_vr;60.025162548229545;
5;GEBÄUDE;Gemacht;q;0;0;0;5;q;1;2.5878547000002072;001;ARLW94;2019_Nov_26_1050;iat_vr;60.025162548229545;
5;STADT;Gemacht;q;0;1;1;6;q;1;0.7969634000000951;001;ARLW94;2019_Nov_26_1050;iat_vr;60.025162548229545;
5;BAUM;Natur;p;0;2;2;0;p;1;1.0150989000003392;001;ARLW94;2019_Nov_26_1050;iat_vr;60.025162548229545;
5;STEIN;Natur;p;0;3;3;4;p;1;0.7320103000001836;001;ARLW94;2019_Nov_26_1050;iat_vr;60.025162548229545;
5;TIER;Natur;p;0;4;4;3;p;1;1.1515308999996705;001;ARLW94;2019_Nov_26_1050;iat_vr;60.025162548229545;
5;WASSER;Natur;p;0;5;5;1;p;1;0.6150194000001648;001;ARLW94;2019_Nov_26_1050;iat_vr;60.025162548229545;
5;BLUME;Natur;p;0;6;6;2;p;1;0.8348820000001069;001;ARLW94;2019_Nov_26_1050;iat_vr;60.025162548229545;
5;COMPUTER;Gemacht;q;0;7;7;8;q;1;1.0137382000002617;001;ARLW94;2019_Nov_26_1050;iat_vr;60.025162548229545;
5;KLEIDER;Gemacht;q;0;8;8;7;q;1;0.6180800000001909;001;ARLW94;2019_Nov_26_1050;iat_vr;60.025162548229545;
5;LAMPE;Gemacht;q;0;9;9;9;q;1;0.6148419000001013;001;ARLW94;2019_Nov_26_1050;iat_vr;60.025162548229545;
5;WASSER;Natur;p;1;0;10;1;p;1;0.9279328000002351;001;ARLW94;2019_Nov_26_1050;iat_vr;60.025162548229545;
5;STADT;Gemacht;q;1;1;11;6;q;1;2.4315691000001607;001;ARLW94;2019_Nov_26_1050;iat_vr;60.025162548229545;
5;BAUM;Natur;p;1;2;12;0;p;1;0.9818428999997195;001;ARLW94;2019_Nov_26_1050;iat_vr;60.025162548229545;
5;KLEIDER;Gemacht;q;1;3;13;7;q;1;0.8629970000001776;001;ARLW94;2019_Nov_26_1050;iat_vr;60.025162548229545;
5;BLUME;Natur;p;1;4;14;2;q;0;1.1147851000005176;001;ARLW94;2019_Nov_26_1050;iat_vr;60.025162548229545;
5;STEIN;Natur;p;1;5;15;4;p;1;1.0144016999993255;001;ARLW94;2019_Nov_26_1050;iat_vr;60.025162548229545;
5;GEBÄUDE;Gemacht;q;1;6;16;5;q;1;1.1467854000002262;001;ARLW94;2019_Nov_26_1050;iat_vr;60.025162548229545;
5;COMPUTER;Gemacht;q;1;7;17;8;q;1;1.1179567999997744;001;ARLW94;2019_Nov_26_1050;iat_vr;60.025162548229545;
5;LAMPE;Gemacht;q;1;8;18;9;q;1;0.6483531000003495;001;ARLW94;2019_Nov_26_1050;iat_vr;60.025162548229545;
5;TIER;Natur;p;1;9;19;3;p;1;0.8282556000003751;001;ARLW94;2019_Nov_26_1050;iat_vr;60.025162548229545;
;;;;;;;;;;;001;ARLW94;2019_Nov_26_1050;iat_vr;60.025162548229545;
6;BLUME;Natur;p;0;0;0;2;p;1;1.5258609000002252;001;ARLW94;2019_Nov_26_1050;iat_vr;60.025162548229545;
6;STEIN;Natur;p;0;1;1;4;p;1;0.7479671000000963;001;ARLW94;2019_Nov_26_1050;iat_vr;60.025162548229545;
6;NEGATIV;negativ;q;0;2;2;12;q;1;1.2350941999993665;001;ARLW94;2019_Nov_26_1050;iat_vr;60.025162548229545;
6;WASSER;Natur;p;0;3;3;1;p;1;1.3298180000001594;001;ARLW94;2019_Nov_26_1050;iat_vr;60.025162548229545;
6;AUSGEZEICHNET;positiv;p;0;4;4;15;p;1;1.2932327999997142;001;ARLW94;2019_Nov_26_1050;iat_vr;60.025162548229545;
6;POSITIV;positiv;p;0;5;5;18;p;1;0.7631844999996247;001;ARLW94;2019_Nov_26_1050;iat_vr;60.025162548229545;
6;EINWANDFREI;positiv;p;0;6;6;16;p;1;0.6448159000001397;001;ARLW94;2019_Nov_26_1050;iat_vr;60.025162548229545;
6;BAUM;Natur;p;0;7;7;0;p;1;0.6321482000003016;001;ARLW94;2019_Nov_26_1050;iat_vr;60.025162548229545;
6;GEBÄUDE;Gemacht;q;0;8;8;5;q;1;0.7971582000000126;001;ARLW94;2019_Nov_26_1050;iat_vr;60.025162548229545;
6;SCHÄDLICH;negativ;q;0;9;9;13;q;1;0.6454641000000265;001;ARLW94;2019_Nov_26_1050;iat_vr;60.025162548229545;
6;SCHWACH;negativ;q;0;10;10;14;q;1;1.1496841999996832;001;ARLW94;2019_Nov_26_1050;iat_vr;60.025162548229545;
6;SCHLIMM;negativ;q;0;11;11;10;q;1;0.5974637999997867;001;ARLW94;2019_Nov_26_1050;iat_vr;60.025162548229545;
6;LAMPE;Gemacht;q;0;12;12;9;q;1;1.3642212999993717;001;ARLW94;2019_Nov_26_1050;iat_vr;60.025162548229545;
6;STADT;Gemacht;q;0;13;13;6;q;1;0.615274199999476;001;ARLW94;2019_Nov_26_1050;iat_vr;60.025162548229545;
6;COMPUTER;Gemacht;q;0;14;14;8;q;1;0.6921672000007675;001;ARLW94;2019_Nov_26_1050;iat_vr;60.025162548229545;
6;SCHLECHT;negativ;q;0;15;15;11;q;1;0.7288646999995763;001;ARLW94;2019_Nov_26_1050;iat_vr;60.025162548229545;
6;HERVORRAGEND;positiv;p;0;16;16;17;p;1;0.7782753000001321;001;ARLW94;2019_Nov_26_1050;iat_vr;60.025162548229545;
6;GUT;positiv;p;0;17;17;19;p;1;0.5829377000000022;001;ARLW94;2019_Nov_26_1050;iat_vr;60.025162548229545;
6;TIER;Natur;p;0;18;18;3;p;1;0.5158970000002228;001;ARLW94;2019_Nov_26_1050;iat_vr;60.025162548229545;
6;KLEIDER;Gemacht;q;0;19;19;7;p;0;0.4967623000002277;001;ARLW94;2019_Nov_26_1050;iat_vr;60.025162548229545;
;;;;;;;;;;;001;ARLW94;2019_Nov_26_1050;iat_vr;60.025162548229545;
7;STEIN;Natur;p;0;0;0;4;p;1;2.8533668000000034;001;ARLW94;2019_Nov_26_1050;iat_vr;60.025162548229545;
7;BAUM;Natur;p;0;1;1;0;p;1;0.517071200000828;001;ARLW94;2019_Nov_26_1050;iat_vr;60.025162548229545;
7;TIER;Natur;p;0;2;2;3;p;1;0.7669881000001624;001;ARLW94;2019_Nov_26_1050;iat_vr;60.025162548229545;
7;WASSER;Natur;p;0;3;3;1;p;1;0.9639396000002307;001;ARLW94;2019_Nov_26_1050;iat_vr;60.025162548229545;
7;NEGATIV;negativ;q;0;4;4;12;q;1;1.0148323000003074;001;ARLW94;2019_Nov_26_1050;iat_vr;60.025162548229545;
7;STADT;Gemacht;q;0;5;5;6;q;1;1.7811719000001176;001;ARLW94;2019_Nov_26_1050;iat_vr;60.025162548229545;
7;SCHWACH;negativ;q;0;6;6;14;q;1;0.6639586999999665;001;ARLW94;2019_Nov_26_1050;iat_vr;60.025162548229545;
7;BLUME;Natur;p;0;7;7;2;p;1;0.8189523000000918;001;ARLW94;2019_Nov_26_1050;iat_vr;60.025162548229545;
7;EINWANDFREI;positiv;p;0;8;8;16;p;1;0.9789129000000685;001;ARLW94;2019_Nov_26_1050;iat_vr;60.025162548229545;
7;KLEIDER;Gemacht;q;0;9;9;7;p;0;0.784910100000161;001;ARLW94;2019_Nov_26_1050;iat_vr;60.025162548229545;
7;AUSGEZEICHNET;positiv;p;0;10;10;15;p;1;1.0957096000001911;001;ARLW94;2019_Nov_26_1050;iat_vr;60.025162548229545;
7;SCHLIMM;negativ;q;0;11;11;10;q;1;0.9992333000000144;001;ARLW94;2019_Nov_26_1050;iat_vr;60.025162548229545;
7;POSITIV;positiv;p;0;12;12;18;p;1;0.8950096999997186;001;ARLW94;2019_Nov_26_1050;iat_vr;60.025162548229545;
7;SCHÄDLICH;negativ;q;0;13;13;13;q;1;1.211829900000339;001;ARLW94;2019_Nov_26_1050;iat_vr;60.025162548229545;
7;HERVORRAGEND;positiv;p;0;14;14;17;p;1;0.8744544000001042;001;ARLW94;2019_Nov_26_1050;iat_vr;60.025162548229545;
7;GEBÄUDE;Gemacht;q;0;15;15;5;p;0;1.4623013999998875;001;ARLW94;2019_Nov_26_1050;iat_vr;60.025162548229545;
7;COMPUTER;Gemacht;q;0;16;16;8;q;1;0.7312701000000743;001;ARLW94;2019_Nov_26_1050;iat_vr;60.025162548229545;
7;GUT;positiv;p;0;17;17;19;p;1;2.318919499999538;001;ARLW94;2019_Nov_26_1050;iat_vr;60.025162548229545;
7;SCHLECHT;negativ;q;0;18;18;11;q;1;1.2301597999994556;001;ARLW94;2019_Nov_26_1050;iat_vr;60.025162548229545;
7;LAMPE;Gemacht;q;0;19;19;9;p;0;1.8637119000004532;001;ARLW94;2019_Nov_26_1050;iat_vr;60.025162548229545;
7;WASSER;Natur;p;1;0;20;1;p;1;0.8978735999999117;001;ARLW94;2019_Nov_26_1050;iat_vr;60.025162548229545;
7;HERVORRAGEND;positiv;p;1;1;21;17;p;1;1.57901529999981;001;ARLW94;2019_Nov_26_1050;iat_vr;60.025162548229545;
7;KLEIDER;Gemacht;q;1;2;22;7;q;1;1.3978485000006913;001;ARLW94;2019_Nov_26_1050;iat_vr;60.025162548229545;
7;BAUM;Natur;p;1;3;23;0;p;1;0.9476156000000628;001;ARLW94;2019_Nov_26_1050;iat_vr;60.025162548229545;
7;COMPUTER;Gemacht;q;1;4;24;8;q;1;1.679955699999482;001;ARLW94;2019_Nov_26_1050;iat_vr;60.025162548229545;
7;POSITIV;positiv;p;1;5;25;18;p;1;0.8121237999994264;001;ARLW94;2019_Nov_26_1050;iat_vr;60.025162548229545;
7;LAMPE;Gemacht;q;1;6;26;9;q;1;0.8133670000006532;001;ARLW94;2019_Nov_26_1050;iat_vr;60.025162548229545;
7;BLUME;Natur;p;1;7;27;2;p;1;0.7984928999994736;001;ARLW94;2019_Nov_26_1050;iat_vr;60.025162548229545;
7;STEIN;Natur;p;1;8;28;4;p;1;0.7151276000004145;001;ARLW94;2019_Nov_26_1050;iat_vr;60.025162548229545;
7;AUSGEZEICHNET;positiv;p;1;9;29;15;p;1;0.9445606999997835;001;ARLW94;2019_Nov_26_1050;iat_vr;60.025162548229545;
7;SCHÄDLICH;negativ;q;1;10;30;13;q;1;0.7801124000006894;001;ARLW94;2019_Nov_26_1050;iat_vr;60.025162548229545;
7;SCHLECHT;negativ;q;1;11;31;11;q;1;0.6267531000003146;001;ARLW94;2019_Nov_26_1050;iat_vr;60.025162548229545;
7;NEGATIV;negativ;q;1;12;32;12;q;1;0.7293863000004421;001;ARLW94;2019_Nov_26_1050;iat_vr;60.025162548229545;
7;GUT;positiv;p;1;13;33;19;p;1;0.666417200000069;001;ARLW94;2019_Nov_26_1050;iat_vr;60.025162548229545;
7;GEBÄUDE;Gemacht;q;1;14;34;5;q;1;2.017467700000452;001;ARLW94;2019_Nov_26_1050;iat_vr;60.025162548229545;
7;SCHLIMM;negativ;q;1;15;35;10;p;0;1.1854160000002594;001;ARLW94;2019_Nov_26_1050;iat_vr;60.025162548229545;
7;EINWANDFREI;positiv;p;1;16;36;16;p;1;0.6619232000002739;001;ARLW94;2019_Nov_26_1050;iat_vr;60.025162548229545;
7;STADT;Gemacht;q;1;17;37;6;q;1;1.9818393999994441;001;ARLW94;2019_Nov_26_1050;iat_vr;60.025162548229545;
7;SCHWACH;negativ;q;1;18;38;14;q;1;2.4634754999997313;001;ARLW94;2019_Nov_26_1050;iat_vr;60.025162548229545;
7;TIER;Natur;p;1;19;39;3;p;1;1.4637695000001258;001;ARLW94;2019_Nov_26_1050;iat_vr;60.025162548229545;
;;;;;;;;;;;001;ARLW94;2019_Nov_26_1050;iat_vr;60.025162548229545;
