Block;Word;Category;CorrResp;trials.thisRepN;trials.thisTrialN;trials.thisN;trials.thisIndex;key_resp_2.keys;key_resp_2.corr;key_resp_2.rt;session;participant;date;expName;frameRate;
1;GEBÄUDE;Gemacht;p;0;0;0;5;p;1;1.1808873999980278;002;ARMS94;2019_Nov_25_1756;iat_vr;60.1422725606989;
1;BLUME;Natur;q;0;1;1;2;q;1;0.6063679999933811;002;ARMS94;2019_Nov_25_1756;iat_vr;60.1422725606989;
1;COMPUTER;Gemacht;p;0;2;2;8;p;1;0.6026879999990342;002;ARMS94;2019_Nov_25_1756;iat_vr;60.1422725606989;
1;KLEIDER;Gemacht;p;0;3;3;7;p;1;0.8754927000045427;002;ARMS94;2019_Nov_25_1756;iat_vr;60.1422725606989;
1;BAUM;Natur;q;0;4;4;0;q;1;0.6800012000021525;002;ARMS94;2019_Nov_25_1756;iat_vr;60.1422725606989;
1;TIER;Natur;q;0;5;5;3;q;1;0.865539099999296;002;ARMS94;2019_Nov_25_1756;iat_vr;60.1422725606989;
1;STEIN;Natur;q;0;6;6;4;q;1;0.5398417000033078;002;ARMS94;2019_Nov_25_1756;iat_vr;60.1422725606989;
1;LAMPE;Gemacht;p;0;7;7;9;p;1;0.9194473000025027;002;ARMS94;2019_Nov_25_1756;iat_vr;60.1422725606989;
1;STADT;Gemacht;p;0;8;8;6;p;1;0.798042100002931;002;ARMS94;2019_Nov_25_1756;iat_vr;60.1422725606989;
1;WASSER;Natur;q;0;9;9;1;q;1;0.578625699999975;002;ARMS94;2019_Nov_25_1756;iat_vr;60.1422725606989;
1;COMPUTER;Gemacht;p;1;0;10;8;p;1;0.6635902000052738;002;ARMS94;2019_Nov_25_1756;iat_vr;60.1422725606989;
1;WASSER;Natur;q;1;1;11;1;q;1;0.6286853000055999;002;ARMS94;2019_Nov_25_1756;iat_vr;60.1422725606989;
1;STEIN;Natur;q;1;2;12;4;q;1;0.6473307999985991;002;ARMS94;2019_Nov_25_1756;iat_vr;60.1422725606989;
1;LAMPE;Gemacht;p;1;3;13;9;p;1;0.8298205999963102;002;ARMS94;2019_Nov_25_1756;iat_vr;60.1422725606989;
1;BLUME;Natur;q;1;4;14;2;q;1;0.6484444999950938;002;ARMS94;2019_Nov_25_1756;iat_vr;60.1422725606989;
1;BAUM;Natur;q;1;5;15;0;q;1;0.7644292999975733;002;ARMS94;2019_Nov_25_1756;iat_vr;60.1422725606989;
1;TIER;Natur;q;1;6;16;3;q;1;0.615957599999092;002;ARMS94;2019_Nov_25_1756;iat_vr;60.1422725606989;
1;GEBÄUDE;Gemacht;p;1;7;17;5;p;1;2.080899699998554;002;ARMS94;2019_Nov_25_1756;iat_vr;60.1422725606989;
1;KLEIDER;Gemacht;p;1;8;18;7;p;1;0.6303487999975914;002;ARMS94;2019_Nov_25_1756;iat_vr;60.1422725606989;
1;STADT;Gemacht;p;1;9;19;6;p;1;0.7023588000010932;002;ARMS94;2019_Nov_25_1756;iat_vr;60.1422725606989;
;;;;;;;;;;;002;ARMS94;2019_Nov_25_1756;iat_vr;60.1422725606989;
2;SCHÄDLICH;negativ;q;0;0;0;3;q;1;1.3745408999966457;002;ARMS94;2019_Nov_25_1756;iat_vr;60.1422725606989;
2;HERVORRAGEND;positiv;p;0;1;1;7;p;1;0.5587655999988783;002;ARMS94;2019_Nov_25_1756;iat_vr;60.1422725606989;
2;NEGATIV;negativ;q;0;2;2;2;q;1;0.4791470999989542;002;ARMS94;2019_Nov_25_1756;iat_vr;60.1422725606989;
2;SCHWACH;negativ;q;0;3;3;4;q;1;0.6311280000008992;002;ARMS94;2019_Nov_25_1756;iat_vr;60.1422725606989;
2;AUSGEZEICHNET;positiv;p;0;4;4;5;p;1;0.60584569999628;002;ARMS94;2019_Nov_25_1756;iat_vr;60.1422725606989;
2;POSITIV;positiv;p;0;5;5;8;p;1;0.6456394999986514;002;ARMS94;2019_Nov_25_1756;iat_vr;60.1422725606989;
2;GUT;positiv;p;0;6;6;9;p;1;0.6646198000016739;002;ARMS94;2019_Nov_25_1756;iat_vr;60.1422725606989;
2;SCHLIMM;negativ;q;0;7;7;0;q;1;0.6306942000010167;002;ARMS94;2019_Nov_25_1756;iat_vr;60.1422725606989;
2;SCHLECHT;negativ;q;0;8;8;1;q;1;0.6302983999994467;002;ARMS94;2019_Nov_25_1756;iat_vr;60.1422725606989;
2;EINWANDFREI;positiv;p;0;9;9;6;p;1;0.7070831000019098;002;ARMS94;2019_Nov_25_1756;iat_vr;60.1422725606989;
2;EINWANDFREI;positiv;p;1;0;10;6;p;1;0.6179741999949329;002;ARMS94;2019_Nov_25_1756;iat_vr;60.1422725606989;
2;POSITIV;positiv;p;1;1;11;8;p;1;0.6143727000016952;002;ARMS94;2019_Nov_25_1756;iat_vr;60.1422725606989;
2;AUSGEZEICHNET;positiv;p;1;2;12;5;p;1;0.6099719000048935;002;ARMS94;2019_Nov_25_1756;iat_vr;60.1422725606989;
2;NEGATIV;negativ;q;1;3;13;2;q;1;0.5639140999992378;002;ARMS94;2019_Nov_25_1756;iat_vr;60.1422725606989;
2;GUT;positiv;p;1;4;14;9;p;1;0.6358525999967242;002;ARMS94;2019_Nov_25_1756;iat_vr;60.1422725606989;
2;SCHLECHT;negativ;q;1;5;15;1;q;1;0.5643036999972537;002;ARMS94;2019_Nov_25_1756;iat_vr;60.1422725606989;
2;SCHLIMM;negativ;q;1;6;16;0;q;1;0.593318300001556;002;ARMS94;2019_Nov_25_1756;iat_vr;60.1422725606989;
2;SCHÄDLICH;negativ;q;1;7;17;3;q;1;0.5460720999981277;002;ARMS94;2019_Nov_25_1756;iat_vr;60.1422725606989;
2;SCHWACH;negativ;q;1;8;18;4;q;1;1.0327896000017063;002;ARMS94;2019_Nov_25_1756;iat_vr;60.1422725606989;
2;HERVORRAGEND;positiv;p;1;9;19;7;p;1;0.7091068000008818;002;ARMS94;2019_Nov_25_1756;iat_vr;60.1422725606989;
;;;;;;;;;;;002;ARMS94;2019_Nov_25_1756;iat_vr;60.1422725606989;
3;LAMPE;Gemacht;p;0;0;0;19;p;1;1.1452111000035075;002;ARMS94;2019_Nov_25_1756;iat_vr;60.1422725606989;
3;WASSER;Natur;q;0;1;1;11;q;1;1.2652123999941978;002;ARMS94;2019_Nov_25_1756;iat_vr;60.1422725606989;
3;TIER;Natur;q;0;2;2;13;q;1;1.1957936999970116;002;ARMS94;2019_Nov_25_1756;iat_vr;60.1422725606989;
3;STEIN;Natur;q;0;3;3;14;q;1;0.6657428000034997;002;ARMS94;2019_Nov_25_1756;iat_vr;60.1422725606989;
3;GUT;positiv;p;0;4;4;9;p;1;0.849596100000781;002;ARMS94;2019_Nov_25_1756;iat_vr;60.1422725606989;
3;SCHÄDLICH;negativ;q;0;5;5;3;q;1;0.7296962000036729;002;ARMS94;2019_Nov_25_1756;iat_vr;60.1422725606989;
3;GEBÄUDE;Gemacht;p;0;6;6;15;p;1;0.8663840000008349;002;ARMS94;2019_Nov_25_1756;iat_vr;60.1422725606989;
3;POSITIV;positiv;p;0;7;7;8;p;1;0.9122196999960579;002;ARMS94;2019_Nov_25_1756;iat_vr;60.1422725606989;
3;AUSGEZEICHNET;positiv;p;0;8;8;5;p;1;0.6946496000018669;002;ARMS94;2019_Nov_25_1756;iat_vr;60.1422725606989;
3;EINWANDFREI;positiv;p;0;9;9;6;p;1;0.6523278000022401;002;ARMS94;2019_Nov_25_1756;iat_vr;60.1422725606989;
3;SCHWACH;negativ;q;0;10;10;4;q;1;0.7486527000000933;002;ARMS94;2019_Nov_25_1756;iat_vr;60.1422725606989;
3;STADT;Gemacht;p;0;11;11;16;p;1;0.7486897999988287;002;ARMS94;2019_Nov_25_1756;iat_vr;60.1422725606989;
3;SCHLIMM;negativ;q;0;12;12;0;q;1;0.7133471999986796;002;ARMS94;2019_Nov_25_1756;iat_vr;60.1422725606989;
3;NEGATIV;negativ;q;0;13;13;2;q;1;0.715249800006859;002;ARMS94;2019_Nov_25_1756;iat_vr;60.1422725606989;
3;SCHLECHT;negativ;q;0;14;14;1;q;1;0.8029210000022431;002;ARMS94;2019_Nov_25_1756;iat_vr;60.1422725606989;
3;KLEIDER;Gemacht;p;0;15;15;17;p;1;0.7134267000001273;002;ARMS94;2019_Nov_25_1756;iat_vr;60.1422725606989;
3;HERVORRAGEND;positiv;p;0;16;16;7;p;1;0.7115358999944874;002;ARMS94;2019_Nov_25_1756;iat_vr;60.1422725606989;
3;COMPUTER;Gemacht;p;0;17;17;18;p;1;0.7623783000017283;002;ARMS94;2019_Nov_25_1756;iat_vr;60.1422725606989;
3;BLUME;Natur;q;0;18;18;12;q;1;0.7869681000011042;002;ARMS94;2019_Nov_25_1756;iat_vr;60.1422725606989;
3;BAUM;Natur;q;0;19;19;10;q;1;0.6826853999955347;002;ARMS94;2019_Nov_25_1756;iat_vr;60.1422725606989;
;;;;;;;;;;;002;ARMS94;2019_Nov_25_1756;iat_vr;60.1422725606989;
4;SCHLIMM;negativ;q;0;0;0;0;q;1;0.8760479999982635;002;ARMS94;2019_Nov_25_1756;iat_vr;60.1422725606989;
4;SCHWACH;negativ;q;0;1;1;4;q;1;0.6021828999946592;002;ARMS94;2019_Nov_25_1756;iat_vr;60.1422725606989;
4;KLEIDER;Gemacht;p;0;2;2;17;p;1;1.2996606000015163;002;ARMS94;2019_Nov_25_1756;iat_vr;60.1422725606989;
4;COMPUTER;Gemacht;p;0;3;3;18;p;1;1.1157925000006799;002;ARMS94;2019_Nov_25_1756;iat_vr;60.1422725606989;
4;GUT;positiv;p;0;4;4;9;p;1;0.8643412000019453;002;ARMS94;2019_Nov_25_1756;iat_vr;60.1422725606989;
4;WASSER;Natur;q;0;5;5;11;q;1;1.0311107000015909;002;ARMS94;2019_Nov_25_1756;iat_vr;60.1422725606989;
4;SCHÄDLICH;negativ;q;0;6;6;3;q;1;1.1963029999969876;002;ARMS94;2019_Nov_25_1756;iat_vr;60.1422725606989;
4;LAMPE;Gemacht;p;0;7;7;19;p;1;0.6987875999984681;002;ARMS94;2019_Nov_25_1756;iat_vr;60.1422725606989;
4;STEIN;Natur;q;0;8;8;14;q;1;0.6963224999999511;002;ARMS94;2019_Nov_25_1756;iat_vr;60.1422725606989;
4;GEBÄUDE;Gemacht;p;0;9;9;15;p;1;0.8800316999986535;002;ARMS94;2019_Nov_25_1756;iat_vr;60.1422725606989;
4;STADT;Gemacht;p;0;10;10;16;p;1;0.7322385000006761;002;ARMS94;2019_Nov_25_1756;iat_vr;60.1422725606989;
4;EINWANDFREI;positiv;p;0;11;11;6;p;1;0.8130678000015905;002;ARMS94;2019_Nov_25_1756;iat_vr;60.1422725606989;
4;TIER;Natur;q;0;12;12;13;q;1;1.731589899995015;002;ARMS94;2019_Nov_25_1756;iat_vr;60.1422725606989;
4;SCHLECHT;negativ;q;0;13;13;1;q;1;1.314092200002051;002;ARMS94;2019_Nov_25_1756;iat_vr;60.1422725606989;
4;AUSGEZEICHNET;positiv;p;0;14;14;5;p;1;1.1643903000003775;002;ARMS94;2019_Nov_25_1756;iat_vr;60.1422725606989;
4;BLUME;Natur;q;0;15;15;12;q;1;0.9317897000000812;002;ARMS94;2019_Nov_25_1756;iat_vr;60.1422725606989;
4;POSITIV;positiv;p;0;16;16;8;p;1;0.8289046999998391;002;ARMS94;2019_Nov_25_1756;iat_vr;60.1422725606989;
4;HERVORRAGEND;positiv;p;0;17;17;7;p;1;0.7609417999992729;002;ARMS94;2019_Nov_25_1756;iat_vr;60.1422725606989;
4;NEGATIV;negativ;q;0;18;18;2;q;1;0.7184693000017432;002;ARMS94;2019_Nov_25_1756;iat_vr;60.1422725606989;
4;BAUM;Natur;q;0;19;19;10;q;1;0.7314336000054027;002;ARMS94;2019_Nov_25_1756;iat_vr;60.1422725606989;
4;LAMPE;Gemacht;p;1;0;20;19;p;1;0.7486516999997548;002;ARMS94;2019_Nov_25_1756;iat_vr;60.1422725606989;
4;HERVORRAGEND;positiv;p;1;1;21;7;p;1;0.6781245000020135;002;ARMS94;2019_Nov_25_1756;iat_vr;60.1422725606989;
4;SCHLIMM;negativ;q;1;2;22;0;q;1;0.7141841000047862;002;ARMS94;2019_Nov_25_1756;iat_vr;60.1422725606989;
4;GEBÄUDE;Gemacht;p;1;3;23;15;p;1;0.6856477999972412;002;ARMS94;2019_Nov_25_1756;iat_vr;60.1422725606989;
4;STEIN;Natur;q;1;4;24;14;q;1;0.5966387000007671;002;ARMS94;2019_Nov_25_1756;iat_vr;60.1422725606989;
4;NEGATIV;negativ;q;1;5;25;2;q;1;0.7982867000027909;002;ARMS94;2019_Nov_25_1756;iat_vr;60.1422725606989;
4;SCHÄDLICH;negativ;q;1;6;26;3;q;1;1.3784133000008296;002;ARMS94;2019_Nov_25_1756;iat_vr;60.1422725606989;
4;EINWANDFREI;positiv;p;1;7;27;6;p;1;0.6461950000011711;002;ARMS94;2019_Nov_25_1756;iat_vr;60.1422725606989;
4;AUSGEZEICHNET;positiv;p;1;8;28;5;p;1;1.5448345999975572;002;ARMS94;2019_Nov_25_1756;iat_vr;60.1422725606989;
4;STADT;Gemacht;p;1;9;29;16;p;1;0.6358353999967221;002;ARMS94;2019_Nov_25_1756;iat_vr;60.1422725606989;
4;KLEIDER;Gemacht;p;1;10;30;17;p;1;0.6300565999990795;002;ARMS94;2019_Nov_25_1756;iat_vr;60.1422725606989;
4;COMPUTER;Gemacht;p;1;11;31;18;p;1;0.6142146000056528;002;ARMS94;2019_Nov_25_1756;iat_vr;60.1422725606989;
4;SCHLECHT;negativ;q;1;12;32;1;q;1;0.6138149999969755;002;ARMS94;2019_Nov_25_1756;iat_vr;60.1422725606989;
4;SCHWACH;negativ;q;1;13;33;4;q;1;0.5623239999986254;002;ARMS94;2019_Nov_25_1756;iat_vr;60.1422725606989;
4;GUT;positiv;p;1;14;34;9;p;1;0.6645548999949824;002;ARMS94;2019_Nov_25_1756;iat_vr;60.1422725606989;
4;TIER;Natur;q;1;15;35;13;q;1;0.6636928000007174;002;ARMS94;2019_Nov_25_1756;iat_vr;60.1422725606989;
4;WASSER;Natur;q;1;16;36;11;q;1;0.9646837999971467;002;ARMS94;2019_Nov_25_1756;iat_vr;60.1422725606989;
4;POSITIV;positiv;p;1;17;37;8;p;1;1.6304299000039464;002;ARMS94;2019_Nov_25_1756;iat_vr;60.1422725606989;
4;BAUM;Natur;q;1;18;38;10;q;1;0.7652648000002955;002;ARMS94;2019_Nov_25_1756;iat_vr;60.1422725606989;
4;BLUME;Natur;q;1;19;39;12;q;1;0.5650557999979355;002;ARMS94;2019_Nov_25_1756;iat_vr;60.1422725606989;
;;;;;;;;;;;002;ARMS94;2019_Nov_25_1756;iat_vr;60.1422725606989;
5;KLEIDER;Gemacht;q;0;0;0;7;q;1;1.399799400001939;002;ARMS94;2019_Nov_25_1756;iat_vr;60.1422725606989;
5;GEBÄUDE;Gemacht;q;0;1;1;5;q;1;0.7641849999999977;002;ARMS94;2019_Nov_25_1756;iat_vr;60.1422725606989;
5;TIER;Natur;p;0;2;2;3;p;1;0.831786300004751;002;ARMS94;2019_Nov_25_1756;iat_vr;60.1422725606989;
5;BAUM;Natur;p;0;3;3;0;p;1;0.6984558000040124;002;ARMS94;2019_Nov_25_1756;iat_vr;60.1422725606989;
5;BLUME;Natur;p;0;4;4;2;p;1;0.8634044999998878;002;ARMS94;2019_Nov_25_1756;iat_vr;60.1422725606989;
5;WASSER;Natur;p;0;5;5;1;p;1;1.2469412999998895;002;ARMS94;2019_Nov_25_1756;iat_vr;60.1422725606989;
5;LAMPE;Gemacht;q;0;6;6;9;q;1;0.8476637999992818;002;ARMS94;2019_Nov_25_1756;iat_vr;60.1422725606989;
5;COMPUTER;Gemacht;q;0;7;7;8;q;1;1.1140282999986084;002;ARMS94;2019_Nov_25_1756;iat_vr;60.1422725606989;
5;STEIN;Natur;p;0;8;8;4;p;1;0.7151045999999042;002;ARMS94;2019_Nov_25_1756;iat_vr;60.1422725606989;
5;STADT;Gemacht;q;0;9;9;6;q;1;0.8305524000024889;002;ARMS94;2019_Nov_25_1756;iat_vr;60.1422725606989;
5;LAMPE;Gemacht;q;1;0;10;9;q;1;0.7650587999960408;002;ARMS94;2019_Nov_25_1756;iat_vr;60.1422725606989;
5;KLEIDER;Gemacht;q;1;1;11;7;q;1;0.7139936999956262;002;ARMS94;2019_Nov_25_1756;iat_vr;60.1422725606989;
5;STEIN;Natur;p;1;2;12;4;p;1;1.2958714999986114;002;ARMS94;2019_Nov_25_1756;iat_vr;60.1422725606989;
5;WASSER;Natur;p;1;3;13;1;p;1;0.9315991000039503;002;ARMS94;2019_Nov_25_1756;iat_vr;60.1422725606989;
5;TIER;Natur;p;1;4;14;3;p;1;0.6994044999955804;002;ARMS94;2019_Nov_25_1756;iat_vr;60.1422725606989;
5;BAUM;Natur;p;1;5;15;0;p;1;0.6817204000035417;002;ARMS94;2019_Nov_25_1756;iat_vr;60.1422725606989;
5;STADT;Gemacht;q;1;6;16;6;q;1;1.050553500004753;002;ARMS94;2019_Nov_25_1756;iat_vr;60.1422725606989;
5;BLUME;Natur;p;1;7;17;2;p;1;1.2494439000001876;002;ARMS94;2019_Nov_25_1756;iat_vr;60.1422725606989;
5;COMPUTER;Gemacht;q;1;8;18;8;q;1;0.7139586000048439;002;ARMS94;2019_Nov_25_1756;iat_vr;60.1422725606989;
5;GEBÄUDE;Gemacht;q;1;9;19;5;q;1;0.7141826000006404;002;ARMS94;2019_Nov_25_1756;iat_vr;60.1422725606989;
;;;;;;;;;;;002;ARMS94;2019_Nov_25_1756;iat_vr;60.1422725606989;
6;SCHÄDLICH;negativ;q;0;0;0;13;q;1;1.751814999995986;002;ARMS94;2019_Nov_25_1756;iat_vr;60.1422725606989;
6;BLUME;Natur;p;0;1;1;2;p;1;0.7487658000027295;002;ARMS94;2019_Nov_25_1756;iat_vr;60.1422725606989;
6;COMPUTER;Gemacht;q;0;2;2;8;q;1;0.9132678999958443;002;ARMS94;2019_Nov_25_1756;iat_vr;60.1422725606989;
6;BAUM;Natur;p;0;3;3;0;p;1;0.8326158999989275;002;ARMS94;2019_Nov_25_1756;iat_vr;60.1422725606989;
6;SCHWACH;negativ;q;0;4;4;14;q;1;0.8133019000015338;002;ARMS94;2019_Nov_25_1756;iat_vr;60.1422725606989;
6;POSITIV;positiv;p;0;5;5;18;p;1;0.5649466999966535;002;ARMS94;2019_Nov_25_1756;iat_vr;60.1422725606989;
6;AUSGEZEICHNET;positiv;p;0;6;6;15;p;1;0.6182314999969094;002;ARMS94;2019_Nov_25_1756;iat_vr;60.1422725606989;
6;LAMPE;Gemacht;q;0;7;7;9;q;1;1.3807061000043177;002;ARMS94;2019_Nov_25_1756;iat_vr;60.1422725606989;
6;STADT;Gemacht;q;0;8;8;6;q;1;0.731909900001483;002;ARMS94;2019_Nov_25_1756;iat_vr;60.1422725606989;
6;KLEIDER;Gemacht;q;0;9;9;7;q;1;1.275459199998295;002;ARMS94;2019_Nov_25_1756;iat_vr;60.1422725606989;
6;EINWANDFREI;positiv;p;0;10;10;16;p;1;0.8440980000013951;002;ARMS94;2019_Nov_25_1756;iat_vr;60.1422725606989;
6;TIER;Natur;p;0;11;11;3;p;1;0.5948945000054664;002;ARMS94;2019_Nov_25_1756;iat_vr;60.1422725606989;
6;GUT;positiv;p;0;12;12;19;p;1;0.7829652000000351;002;ARMS94;2019_Nov_25_1756;iat_vr;60.1422725606989;
6;STEIN;Natur;p;0;13;13;4;p;1;0.8822736000001896;002;ARMS94;2019_Nov_25_1756;iat_vr;60.1422725606989;
6;GEBÄUDE;Gemacht;q;0;14;14;5;q;1;0.6647639000002528;002;ARMS94;2019_Nov_25_1756;iat_vr;60.1422725606989;
6;NEGATIV;negativ;q;0;15;15;12;q;1;0.6641163000022061;002;ARMS94;2019_Nov_25_1756;iat_vr;60.1422725606989;
6;SCHLECHT;negativ;q;0;16;16;11;q;1;0.77942950000579;002;ARMS94;2019_Nov_25_1756;iat_vr;60.1422725606989;
6;SCHLIMM;negativ;q;0;17;17;10;q;1;0.7145239999954356;002;ARMS94;2019_Nov_25_1756;iat_vr;60.1422725606989;
6;HERVORRAGEND;positiv;p;0;18;18;17;p;1;0.7785797000033199;002;ARMS94;2019_Nov_25_1756;iat_vr;60.1422725606989;
6;WASSER;Natur;p;0;19;19;1;p;1;0.6988264999963576;002;ARMS94;2019_Nov_25_1756;iat_vr;60.1422725606989;
;;;;;;;;;;;002;ARMS94;2019_Nov_25_1756;iat_vr;60.1422725606989;
7;KLEIDER;Gemacht;q;0;0;0;7;q;1;1.0794976000033785;002;ARMS94;2019_Nov_25_1756;iat_vr;60.1422725606989;
7;POSITIV;positiv;p;0;1;1;18;p;1;0.649826300003042;002;ARMS94;2019_Nov_25_1756;iat_vr;60.1422725606989;
7;STADT;Gemacht;q;0;2;2;6;q;1;0.6991607000018121;002;ARMS94;2019_Nov_25_1756;iat_vr;60.1422725606989;
7;TIER;Natur;p;0;3;3;3;p;1;0.8160337999943295;002;ARMS94;2019_Nov_25_1756;iat_vr;60.1422725606989;
7;EINWANDFREI;positiv;p;0;4;4;16;p;1;0.7115649999977904;002;ARMS94;2019_Nov_25_1756;iat_vr;60.1422725606989;
7;HERVORRAGEND;positiv;p;0;5;5;17;p;1;0.7790509000042221;002;ARMS94;2019_Nov_25_1756;iat_vr;60.1422725606989;
7;GUT;positiv;p;0;6;6;19;p;1;0.9491983000043547;002;ARMS94;2019_Nov_25_1756;iat_vr;60.1422725606989;
7;NEGATIV;negativ;q;0;7;7;12;q;1;0.7313912000026903;002;ARMS94;2019_Nov_25_1756;iat_vr;60.1422725606989;
7;WASSER;Natur;p;0;8;8;1;p;1;0.8685249999980442;002;ARMS94;2019_Nov_25_1756;iat_vr;60.1422725606989;
7;SCHWACH;negativ;q;0;9;9;14;q;1;0.795962000003783;002;ARMS94;2019_Nov_25_1756;iat_vr;60.1422725606989;
7;BAUM;Natur;p;0;10;10;0;p;1;0.8500619000042207;002;ARMS94;2019_Nov_25_1756;iat_vr;60.1422725606989;
7;LAMPE;Gemacht;q;0;11;11;9;q;1;0.7334840999974404;002;ARMS94;2019_Nov_25_1756;iat_vr;60.1422725606989;
7;COMPUTER;Gemacht;q;0;12;12;8;q;1;0.6294605000002775;002;ARMS94;2019_Nov_25_1756;iat_vr;60.1422725606989;
7;BLUME;Natur;p;0;13;13;2;p;1;0.7649743000001763;002;ARMS94;2019_Nov_25_1756;iat_vr;60.1422725606989;
7;SCHÄDLICH;negativ;q;0;14;14;13;q;1;0.6976595999949495;002;ARMS94;2019_Nov_25_1756;iat_vr;60.1422725606989;
7;AUSGEZEICHNET;positiv;p;0;15;15;15;p;1;0.7934814000036567;002;ARMS94;2019_Nov_25_1756;iat_vr;60.1422725606989;
7;SCHLIMM;negativ;q;0;16;16;10;q;1;1.0306795999931637;002;ARMS94;2019_Nov_25_1756;iat_vr;60.1422725606989;
7;GEBÄUDE;Gemacht;q;0;17;17;5;q;1;0.7981194000021787;002;ARMS94;2019_Nov_25_1756;iat_vr;60.1422725606989;
7;STEIN;Natur;p;0;18;18;4;p;1;0.8489809000020614;002;ARMS94;2019_Nov_25_1756;iat_vr;60.1422725606989;
7;SCHLECHT;negativ;q;0;19;19;11;q;1;1.8770547999956761;002;ARMS94;2019_Nov_25_1756;iat_vr;60.1422725606989;
7;SCHWACH;negativ;q;1;0;20;14;q;1;0.647958400004427;002;ARMS94;2019_Nov_25_1756;iat_vr;60.1422725606989;
7;LAMPE;Gemacht;q;1;1;21;9;q;1;0.7650867000047583;002;ARMS94;2019_Nov_25_1756;iat_vr;60.1422725606989;
7;COMPUTER;Gemacht;q;1;2;22;8;q;1;0.6637335999985225;002;ARMS94;2019_Nov_25_1756;iat_vr;60.1422725606989;
7;GEBÄUDE;Gemacht;q;1;3;23;5;q;1;0.6806504999985918;002;ARMS94;2019_Nov_25_1756;iat_vr;60.1422725606989;
7;BLUME;Natur;p;1;4;24;2;p;1;1.052073000006203;002;ARMS94;2019_Nov_25_1756;iat_vr;60.1422725606989;
7;SCHÄDLICH;negativ;q;1;5;25;13;q;1;0.6306494000018574;002;ARMS94;2019_Nov_25_1756;iat_vr;60.1422725606989;
7;SCHLECHT;negativ;q;1;6;26;11;q;1;0.66516020000563;002;ARMS94;2019_Nov_25_1756;iat_vr;60.1422725606989;
7;STADT;Gemacht;q;1;7;27;6;q;1;0.6990215000041644;002;ARMS94;2019_Nov_25_1756;iat_vr;60.1422725606989;
7;NEGATIV;negativ;q;1;8;28;12;q;1;0.5967929000034928;002;ARMS94;2019_Nov_25_1756;iat_vr;60.1422725606989;
7;BAUM;Natur;p;1;9;29;0;p;1;0.6985666999971727;002;ARMS94;2019_Nov_25_1756;iat_vr;60.1422725606989;
7;AUSGEZEICHNET;positiv;p;1;10;30;15;p;1;0.677154299999529;002;ARMS94;2019_Nov_25_1756;iat_vr;60.1422725606989;
7;SCHLIMM;negativ;q;1;11;31;10;q;1;0.6978071999983513;002;ARMS94;2019_Nov_25_1756;iat_vr;60.1422725606989;
7;HERVORRAGEND;positiv;p;1;12;32;17;p;1;0.628603800003475;002;ARMS94;2019_Nov_25_1756;iat_vr;60.1422725606989;
7;KLEIDER;Gemacht;q;1;13;33;7;q;1;0.9139494999981252;002;ARMS94;2019_Nov_25_1756;iat_vr;60.1422725606989;
7;EINWANDFREI;positiv;p;1;14;34;16;p;1;0.7285263000012492;002;ARMS94;2019_Nov_25_1756;iat_vr;60.1422725606989;
7;GUT;positiv;p;1;15;35;19;p;1;1.6007303999940632;002;ARMS94;2019_Nov_25_1756;iat_vr;60.1422725606989;
7;POSITIV;positiv;p;1;16;36;18;p;1;0.8649700000023586;002;ARMS94;2019_Nov_25_1756;iat_vr;60.1422725606989;
7;STEIN;Natur;p;1;17;37;4;p;1;0.8985339999999269;002;ARMS94;2019_Nov_25_1756;iat_vr;60.1422725606989;
7;WASSER;Natur;p;1;18;38;1;p;1;0.6640219999972032;002;ARMS94;2019_Nov_25_1756;iat_vr;60.1422725606989;
7;TIER;Natur;p;1;19;39;3;p;1;0.5833636000024853;002;ARMS94;2019_Nov_25_1756;iat_vr;60.1422725606989;
;;;;;;;;;;;002;ARMS94;2019_Nov_25_1756;iat_vr;60.1422725606989;
