Block;Word;Category;CorrResp;trials.thisRepN;trials.thisTrialN;trials.thisN;trials.thisIndex;key_resp_2.keys;key_resp_2.corr;key_resp_2.rt;session;participant;date;expName;frameRate;
1;STEIN;Natur;q;0;0;0;4;q;1;1.1532719999995606;002;ARSF95;2019_Nov_25_1449;iat_vr;59.85919919268545;
1;GEBÄUDE;Gemacht;p;0;1;1;5;p;1;0.564664300000004;002;ARSF95;2019_Nov_25_1449;iat_vr;59.85919919268545;
1;BLUME;Natur;q;0;2;2;2;q;1;0.5079071999971347;002;ARSF95;2019_Nov_25_1449;iat_vr;59.85919919268545;
1;BAUM;Natur;q;0;3;3;0;q;1;0.44684370000322815;002;ARSF95;2019_Nov_25_1449;iat_vr;59.85919919268545;
1;TIER;Natur;q;0;4;4;3;q;1;0.6278437000000849;002;ARSF95;2019_Nov_25_1449;iat_vr;59.85919919268545;
1;COMPUTER;Gemacht;p;0;5;5;8;p;1;0.5061908999996376;002;ARSF95;2019_Nov_25_1449;iat_vr;59.85919919268545;
1;WASSER;Natur;q;0;6;6;1;q;1;0.5079332999994222;002;ARSF95;2019_Nov_25_1449;iat_vr;59.85919919268545;
1;KLEIDER;Gemacht;p;0;7;7;7;p;1;0.5459323000031873;002;ARSF95;2019_Nov_25_1449;iat_vr;59.85919919268545;
1;STADT;Gemacht;p;0;8;8;6;p;1;0.5145764000008057;002;ARSF95;2019_Nov_25_1449;iat_vr;59.85919919268545;
1;LAMPE;Gemacht;p;0;9;9;9;p;1;0.5463070000005246;002;ARSF95;2019_Nov_25_1449;iat_vr;59.85919919268545;
1;TIER;Natur;q;1;0;10;3;q;1;0.48296250000203145;002;ARSF95;2019_Nov_25_1449;iat_vr;59.85919919268545;
1;STADT;Gemacht;p;1;1;11;6;p;1;0.5259909999986121;002;ARSF95;2019_Nov_25_1449;iat_vr;59.85919919268545;
1;LAMPE;Gemacht;p;1;2;12;9;q;0;0.5288591000025917;002;ARSF95;2019_Nov_25_1449;iat_vr;59.85919919268545;
1;GEBÄUDE;Gemacht;p;1;3;13;5;p;1;0.6486882999997761;002;ARSF95;2019_Nov_25_1449;iat_vr;59.85919919268545;
1;KLEIDER;Gemacht;p;1;4;14;7;p;1;1.147370000002411;002;ARSF95;2019_Nov_25_1449;iat_vr;59.85919919268545;
1;WASSER;Natur;q;1;5;15;1;q;1;0.5801685000005818;002;ARSF95;2019_Nov_25_1449;iat_vr;59.85919919268545;
1;COMPUTER;Gemacht;p;1;6;16;8;p;1;0.4623566000009305;002;ARSF95;2019_Nov_25_1449;iat_vr;59.85919919268545;
1;STEIN;Natur;q;1;7;17;4;q;1;0.5650056000013137;002;ARSF95;2019_Nov_25_1449;iat_vr;59.85919919268545;
1;BAUM;Natur;q;1;8;18;0;q;1;0.5316495000006398;002;ARSF95;2019_Nov_25_1449;iat_vr;59.85919919268545;
1;BLUME;Natur;q;1;9;19;2;q;1;0.3661499999980151;002;ARSF95;2019_Nov_25_1449;iat_vr;59.85919919268545;
;;;;;;;;;;;002;ARSF95;2019_Nov_25_1449;iat_vr;59.85919919268545;
2;AUSGEZEICHNET;positiv;p;0;0;0;5;p;1;0.7167928000017127;002;ARSF95;2019_Nov_25_1449;iat_vr;59.85919919268545;
2;POSITIV;positiv;p;0;1;1;8;p;1;0.4505898999996134;002;ARSF95;2019_Nov_25_1449;iat_vr;59.85919919268545;
2;SCHLECHT;negativ;q;0;2;2;1;q;1;0.5039894000001368;002;ARSF95;2019_Nov_25_1449;iat_vr;59.85919919268545;
2;NEGATIV;negativ;q;0;3;3;2;q;1;0.4624484999985725;002;ARSF95;2019_Nov_25_1449;iat_vr;59.85919919268545;
2;HERVORRAGEND;positiv;p;0;4;4;7;p;1;0.5271167999999307;002;ARSF95;2019_Nov_25_1449;iat_vr;59.85919919268545;
2;EINWANDFREI;positiv;p;0;5;5;6;p;1;0.5616200000004028;002;ARSF95;2019_Nov_25_1449;iat_vr;59.85919919268545;
2;SCHÄDLICH;negativ;q;0;6;6;3;q;1;0.6635638999978255;002;ARSF95;2019_Nov_25_1449;iat_vr;59.85919919268545;
2;SCHLIMM;negativ;q;0;7;7;0;q;1;0.564503200002946;002;ARSF95;2019_Nov_25_1449;iat_vr;59.85919919268545;
2;SCHWACH;negativ;q;0;8;8;4;q;1;0.5984871000000567;002;ARSF95;2019_Nov_25_1449;iat_vr;59.85919919268545;
2;GUT;positiv;p;0;9;9;9;p;1;0.5502087999993819;002;ARSF95;2019_Nov_25_1449;iat_vr;59.85919919268545;
2;HERVORRAGEND;positiv;p;1;0;10;7;p;1;1.1947054000011121;002;ARSF95;2019_Nov_25_1449;iat_vr;59.85919919268545;
2;SCHÄDLICH;negativ;q;1;1;11;3;q;1;0.5799564000008104;002;ARSF95;2019_Nov_25_1449;iat_vr;59.85919919268545;
2;SCHLIMM;negativ;q;1;2;12;0;q;1;1.0624258999996528;002;ARSF95;2019_Nov_25_1449;iat_vr;59.85919919268545;
2;AUSGEZEICHNET;positiv;p;1;3;13;5;p;1;0.560137800002849;002;ARSF95;2019_Nov_25_1449;iat_vr;59.85919919268545;
2;EINWANDFREI;positiv;p;1;4;14;6;p;1;0.6799276000019745;002;ARSF95;2019_Nov_25_1449;iat_vr;59.85919919268545;
2;POSITIV;positiv;p;1;5;15;8;p;1;0.5810120000023744;002;ARSF95;2019_Nov_25_1449;iat_vr;59.85919919268545;
2;SCHLECHT;negativ;q;1;6;16;1;q;1;0.5135448000000906;002;ARSF95;2019_Nov_25_1449;iat_vr;59.85919919268545;
2;GUT;positiv;p;1;7;17;9;p;1;0.5160952000005636;002;ARSF95;2019_Nov_25_1449;iat_vr;59.85919919268545;
2;NEGATIV;negativ;q;1;8;18;2;q;1;0.5478990999981761;002;ARSF95;2019_Nov_25_1449;iat_vr;59.85919919268545;
2;SCHWACH;negativ;q;1;9;19;4;q;1;0.6453771999986202;002;ARSF95;2019_Nov_25_1449;iat_vr;59.85919919268545;
;;;;;;;;;;;002;ARSF95;2019_Nov_25_1449;iat_vr;59.85919919268545;
3;SCHLECHT;negativ;q;0;0;0;1;q;1;1.0020868999999948;002;ARSF95;2019_Nov_25_1449;iat_vr;59.85919919268545;
3;SCHWACH;negativ;q;0;1;1;4;q;1;0.5316703999997117;002;ARSF95;2019_Nov_25_1449;iat_vr;59.85919919268545;
3;GEBÄUDE;Gemacht;p;0;2;2;15;p;1;0.5474916999992274;002;ARSF95;2019_Nov_25_1449;iat_vr;59.85919919268545;
3;COMPUTER;Gemacht;p;0;3;3;18;p;1;0.5982962999987649;002;ARSF95;2019_Nov_25_1449;iat_vr;59.85919919268545;
3;EINWANDFREI;positiv;p;0;4;4;6;p;1;0.6116140999984054;002;ARSF95;2019_Nov_25_1449;iat_vr;59.85919919268545;
3;AUSGEZEICHNET;positiv;p;0;5;5;5;p;1;0.609982999998465;002;ARSF95;2019_Nov_25_1449;iat_vr;59.85919919268545;
3;WASSER;Natur;q;0;6;6;11;q;1;0.5647986000003584;002;ARSF95;2019_Nov_25_1449;iat_vr;59.85919919268545;
3;BAUM;Natur;q;0;7;7;10;q;1;0.5651181000030192;002;ARSF95;2019_Nov_25_1449;iat_vr;59.85919919268545;
3;NEGATIV;negativ;q;0;8;8;2;q;1;0.5815865999975358;002;ARSF95;2019_Nov_25_1449;iat_vr;59.85919919268545;
3;STADT;Gemacht;p;0;9;9;16;p;1;0.48126199999751407;002;ARSF95;2019_Nov_25_1449;iat_vr;59.85919919268545;
3;STEIN;Natur;q;0;10;10;14;q;1;0.7319348999990325;002;ARSF95;2019_Nov_25_1449;iat_vr;59.85919919268545;
3;BLUME;Natur;q;0;11;11;12;q;1;0.5647902000018803;002;ARSF95;2019_Nov_25_1449;iat_vr;59.85919919268545;
3;SCHLIMM;negativ;q;0;12;12;0;q;1;0.6646834999992279;002;ARSF95;2019_Nov_25_1449;iat_vr;59.85919919268545;
3;LAMPE;Gemacht;p;0;13;13;19;p;1;0.6153913999987708;002;ARSF95;2019_Nov_25_1449;iat_vr;59.85919919268545;
3;HERVORRAGEND;positiv;p;0;14;14;7;p;1;0.5602617000004102;002;ARSF95;2019_Nov_25_1449;iat_vr;59.85919919268545;
3;TIER;Natur;q;0;15;15;13;q;1;0.664895300000353;002;ARSF95;2019_Nov_25_1449;iat_vr;59.85919919268545;
3;GUT;positiv;p;0;16;16;9;p;1;0.6820947000014712;002;ARSF95;2019_Nov_25_1449;iat_vr;59.85919919268545;
3;POSITIV;positiv;p;0;17;17;8;p;1;0.6218535999978485;002;ARSF95;2019_Nov_25_1449;iat_vr;59.85919919268545;
3;KLEIDER;Gemacht;p;0;18;18;17;p;1;0.6976550999970641;002;ARSF95;2019_Nov_25_1449;iat_vr;59.85919919268545;
3;SCHÄDLICH;negativ;q;0;19;19;3;q;1;0.5972304999995686;002;ARSF95;2019_Nov_25_1449;iat_vr;59.85919919268545;
;;;;;;;;;;;002;ARSF95;2019_Nov_25_1449;iat_vr;59.85919919268545;
4;GUT;positiv;p;0;0;0;9;p;1;0.8235157000017352;002;ARSF95;2019_Nov_25_1449;iat_vr;59.85919919268545;
4;SCHLECHT;negativ;q;0;1;1;1;q;1;0.6465834000009636;002;ARSF95;2019_Nov_25_1449;iat_vr;59.85919919268545;
4;KLEIDER;Gemacht;p;0;2;2;17;p;1;0.5642556999991939;002;ARSF95;2019_Nov_25_1449;iat_vr;59.85919919268545;
4;TIER;Natur;q;0;3;3;13;q;1;0.6003560000026482;002;ARSF95;2019_Nov_25_1449;iat_vr;59.85919919268545;
4;GEBÄUDE;Gemacht;p;0;4;4;15;p;1;0.535933399998612;002;ARSF95;2019_Nov_25_1449;iat_vr;59.85919919268545;
4;WASSER;Natur;q;0;5;5;11;q;1;0.702556199998071;002;ARSF95;2019_Nov_25_1449;iat_vr;59.85919919268545;
4;COMPUTER;Gemacht;p;0;6;6;18;p;1;0.614653199998429;002;ARSF95;2019_Nov_25_1449;iat_vr;59.85919919268545;
4;LAMPE;Gemacht;p;0;7;7;19;p;1;0.6573027999984333;002;ARSF95;2019_Nov_25_1449;iat_vr;59.85919919268545;
4;SCHLIMM;negativ;q;0;8;8;0;q;1;0.5982893000000331;002;ARSF95;2019_Nov_25_1449;iat_vr;59.85919919268545;
4;POSITIV;positiv;p;0;9;9;8;p;1;0.5983081000013044;002;ARSF95;2019_Nov_25_1449;iat_vr;59.85919919268545;
4;BLUME;Natur;q;0;10;10;12;p;0;0.6989296000028844;002;ARSF95;2019_Nov_25_1449;iat_vr;59.85919919268545;
4;STADT;Gemacht;p;0;11;11;16;p;1;0.6653757999993104;002;ARSF95;2019_Nov_25_1449;iat_vr;59.85919919268545;
4;BAUM;Natur;q;0;12;12;10;q;1;1.4169399999991583;002;ARSF95;2019_Nov_25_1449;iat_vr;59.85919919268545;
4;AUSGEZEICHNET;positiv;p;0;13;13;5;p;1;0.577494500001194;002;ARSF95;2019_Nov_25_1449;iat_vr;59.85919919268545;
4;NEGATIV;negativ;q;0;14;14;2;q;1;0.6304468000016641;002;ARSF95;2019_Nov_25_1449;iat_vr;59.85919919268545;
4;SCHÄDLICH;negativ;q;0;15;15;3;q;1;0.8974634999976843;002;ARSF95;2019_Nov_25_1449;iat_vr;59.85919919268545;
4;SCHWACH;negativ;q;0;16;16;4;q;1;0.5651346999984526;002;ARSF95;2019_Nov_25_1449;iat_vr;59.85919919268545;
4;EINWANDFREI;positiv;p;0;17;17;6;p;1;0.6963696000020718;002;ARSF95;2019_Nov_25_1449;iat_vr;59.85919919268545;
4;HERVORRAGEND;positiv;p;0;18;18;7;p;1;0.545403999996779;002;ARSF95;2019_Nov_25_1449;iat_vr;59.85919919268545;
4;STEIN;Natur;q;0;19;19;14;q;1;0.6314476000006835;002;ARSF95;2019_Nov_25_1449;iat_vr;59.85919919268545;
4;SCHLIMM;negativ;q;1;0;20;0;q;1;0.8974257999980182;002;ARSF95;2019_Nov_25_1449;iat_vr;59.85919919268545;
4;POSITIV;positiv;p;1;1;21;8;p;1;0.6480545999984315;002;ARSF95;2019_Nov_25_1449;iat_vr;59.85919919268545;
4;NEGATIV;negativ;q;1;2;22;2;q;1;0.6479532999983348;002;ARSF95;2019_Nov_25_1449;iat_vr;59.85919919268545;
4;KLEIDER;Gemacht;p;1;3;23;17;p;1;0.6143621000010171;002;ARSF95;2019_Nov_25_1449;iat_vr;59.85919919268545;
4;GEBÄUDE;Gemacht;p;1;4;24;15;p;1;0.49791539999932866;002;ARSF95;2019_Nov_25_1449;iat_vr;59.85919919268545;
4;BLUME;Natur;q;1;5;25;12;q;1;0.5987228000012692;002;ARSF95;2019_Nov_25_1449;iat_vr;59.85919919268545;
4;BAUM;Natur;q;1;6;26;10;q;1;0.6487550000019837;002;ARSF95;2019_Nov_25_1449;iat_vr;59.85919919268545;
4;LAMPE;Gemacht;p;1;7;27;19;p;1;0.8663247000004048;002;ARSF95;2019_Nov_25_1449;iat_vr;59.85919919268545;
4;GUT;positiv;p;1;8;28;9;p;1;1.032176900000195;002;ARSF95;2019_Nov_25_1449;iat_vr;59.85919919268545;
4;SCHWACH;negativ;q;1;9;29;4;q;1;0.9973508999974001;002;ARSF95;2019_Nov_25_1449;iat_vr;59.85919919268545;
4;STADT;Gemacht;p;1;10;30;16;p;1;0.5649018999974942;002;ARSF95;2019_Nov_25_1449;iat_vr;59.85919919268545;
4;AUSGEZEICHNET;positiv;p;1;11;31;5;p;1;0.5621453999992809;002;ARSF95;2019_Nov_25_1449;iat_vr;59.85919919268545;
4;SCHLECHT;negativ;q;1;12;32;1;q;1;0.6634760000015376;002;ARSF95;2019_Nov_25_1449;iat_vr;59.85919919268545;
4;TIER;Natur;q;1;13;33;13;q;1;0.599456600000849;002;ARSF95;2019_Nov_25_1449;iat_vr;59.85919919268545;
4;COMPUTER;Gemacht;p;1;14;34;18;p;1;0.543858299999556;002;ARSF95;2019_Nov_25_1449;iat_vr;59.85919919268545;
4;SCHÄDLICH;negativ;q;1;15;35;3;q;1;0.5262846000005084;002;ARSF95;2019_Nov_25_1449;iat_vr;59.85919919268545;
4;EINWANDFREI;positiv;p;1;16;36;6;p;1;0.5290877999977965;002;ARSF95;2019_Nov_25_1449;iat_vr;59.85919919268545;
4;STEIN;Natur;q;1;17;37;14;q;1;0.8986734999998589;002;ARSF95;2019_Nov_25_1449;iat_vr;59.85919919268545;
4;WASSER;Natur;q;1;18;38;11;q;1;0.564467500000319;002;ARSF95;2019_Nov_25_1449;iat_vr;59.85919919268545;
4;HERVORRAGEND;positiv;p;1;19;39;7;p;1;0.5463995999998588;002;ARSF95;2019_Nov_25_1449;iat_vr;59.85919919268545;
;;;;;;;;;;;002;ARSF95;2019_Nov_25_1449;iat_vr;59.85919919268545;
5;BAUM;Natur;p;0;0;0;0;p;1;0.8027786999991804;002;ARSF95;2019_Nov_25_1449;iat_vr;59.85919919268545;
5;STADT;Gemacht;q;0;1;1;6;q;1;0.5659053999988828;002;ARSF95;2019_Nov_25_1449;iat_vr;59.85919919268545;
5;WASSER;Natur;p;0;2;2;1;p;1;1.197758000002068;002;ARSF95;2019_Nov_25_1449;iat_vr;59.85919919268545;
5;KLEIDER;Gemacht;q;0;3;3;7;q;1;0.6726940000007744;002;ARSF95;2019_Nov_25_1449;iat_vr;59.85919919268545;
5;TIER;Natur;p;0;4;4;3;q;0;0.6145184999986668;002;ARSF95;2019_Nov_25_1449;iat_vr;59.85919919268545;
5;COMPUTER;Gemacht;q;0;5;5;8;q;1;0.996532400000433;002;ARSF95;2019_Nov_25_1449;iat_vr;59.85919919268545;
5;STEIN;Natur;p;0;6;6;4;p;1;0.5651188000010734;002;ARSF95;2019_Nov_25_1449;iat_vr;59.85919919268545;
5;BLUME;Natur;p;0;7;7;2;p;1;0.5654896999985795;002;ARSF95;2019_Nov_25_1449;iat_vr;59.85919919268545;
5;GEBÄUDE;Gemacht;q;0;8;8;5;q;1;0.6306934000022011;002;ARSF95;2019_Nov_25_1449;iat_vr;59.85919919268545;
5;LAMPE;Gemacht;q;0;9;9;9;q;1;1.0320417000002635;002;ARSF95;2019_Nov_25_1449;iat_vr;59.85919919268545;
5;TIER;Natur;p;1;0;10;3;p;1;0.514965200000006;002;ARSF95;2019_Nov_25_1449;iat_vr;59.85919919268545;
5;GEBÄUDE;Gemacht;q;1;1;11;5;q;1;0.48107420000087586;002;ARSF95;2019_Nov_25_1449;iat_vr;59.85919919268545;
5;BLUME;Natur;p;1;2;12;2;q;0;0.5980644000010216;002;ARSF95;2019_Nov_25_1449;iat_vr;59.85919919268545;
5;COMPUTER;Gemacht;q;1;3;13;8;q;1;0.6810225999979593;002;ARSF95;2019_Nov_25_1449;iat_vr;59.85919919268545;
5;BAUM;Natur;p;1;4;14;0;p;1;0.5651885999977821;002;ARSF95;2019_Nov_25_1449;iat_vr;59.85919919268545;
5;LAMPE;Gemacht;q;1;5;15;9;q;1;0.9799902999984624;002;ARSF95;2019_Nov_25_1449;iat_vr;59.85919919268545;
5;STADT;Gemacht;q;1;6;16;6;q;1;0.5474405999993905;002;ARSF95;2019_Nov_25_1449;iat_vr;59.85919919268545;
5;WASSER;Natur;p;1;7;17;1;p;1;0.48121979999996256;002;ARSF95;2019_Nov_25_1449;iat_vr;59.85919919268545;
5;KLEIDER;Gemacht;q;1;8;18;7;q;1;0.6832515999994939;002;ARSF95;2019_Nov_25_1449;iat_vr;59.85919919268545;
5;STEIN;Natur;p;1;9;19;4;p;1;0.7987180999989505;002;ARSF95;2019_Nov_25_1449;iat_vr;59.85919919268545;
;;;;;;;;;;;002;ARSF95;2019_Nov_25_1449;iat_vr;59.85919919268545;
6;GEBÄUDE;Gemacht;q;0;0;0;5;q;1;0.8918153000013262;002;ARSF95;2019_Nov_25_1449;iat_vr;59.85919919268545;
6;NEGATIV;negativ;q;0;1;1;12;q;1;1.5150166000021272;002;ARSF95;2019_Nov_25_1449;iat_vr;59.85919919268545;
6;GUT;positiv;p;0;2;2;19;p;1;0.6995152999988932;002;ARSF95;2019_Nov_25_1449;iat_vr;59.85919919268545;
6;SCHLIMM;negativ;q;0;3;3;10;q;1;1.5135953000026348;002;ARSF95;2019_Nov_25_1449;iat_vr;59.85919919268545;
6;SCHLECHT;negativ;q;0;4;4;11;q;1;0.6981594999997469;002;ARSF95;2019_Nov_25_1449;iat_vr;59.85919919268545;
6;STEIN;Natur;p;0;5;5;4;p;1;0.6482226000007358;002;ARSF95;2019_Nov_25_1449;iat_vr;59.85919919268545;
6;STADT;Gemacht;q;0;6;6;6;q;1;0.5817007000005106;002;ARSF95;2019_Nov_25_1449;iat_vr;59.85919919268545;
6;KLEIDER;Gemacht;q;0;7;7;7;p;0;0.647895599999174;002;ARSF95;2019_Nov_25_1449;iat_vr;59.85919919268545;
6;TIER;Natur;p;0;8;8;3;p;1;0.9991235000015877;002;ARSF95;2019_Nov_25_1449;iat_vr;59.85919919268545;
6;WASSER;Natur;p;0;9;9;1;p;1;0.5978122000014991;002;ARSF95;2019_Nov_25_1449;iat_vr;59.85919919268545;
6;BAUM;Natur;p;0;10;10;0;p;1;0.732150100000581;002;ARSF95;2019_Nov_25_1449;iat_vr;59.85919919268545;
6;EINWANDFREI;positiv;p;0;11;11;16;p;1;0.6117444999981672;002;ARSF95;2019_Nov_25_1449;iat_vr;59.85919919268545;
6;COMPUTER;Gemacht;q;0;12;12;8;q;1;0.8297727000026498;002;ARSF95;2019_Nov_25_1449;iat_vr;59.85919919268545;
6;HERVORRAGEND;positiv;p;0;13;13;17;p;1;0.6299020000005839;002;ARSF95;2019_Nov_25_1449;iat_vr;59.85919919268545;
6;LAMPE;Gemacht;q;0;14;14;9;q;1;0.9151626000020769;002;ARSF95;2019_Nov_25_1449;iat_vr;59.85919919268545;
6;BLUME;Natur;p;0;15;15;2;p;1;0.7475092999993649;002;ARSF95;2019_Nov_25_1449;iat_vr;59.85919919268545;
6;AUSGEZEICHNET;positiv;p;0;16;16;15;p;1;0.7271011999982875;002;ARSF95;2019_Nov_25_1449;iat_vr;59.85919919268545;
6;POSITIV;positiv;p;0;17;17;18;p;1;0.564148400000704;002;ARSF95;2019_Nov_25_1449;iat_vr;59.85919919268545;
6;SCHÄDLICH;negativ;q;0;18;18;13;q;1;0.5609162000000651;002;ARSF95;2019_Nov_25_1449;iat_vr;59.85919919268545;
6;SCHWACH;negativ;q;0;19;19;14;q;1;0.5622330000005604;002;ARSF95;2019_Nov_25_1449;iat_vr;59.85919919268545;
;;;;;;;;;;;002;ARSF95;2019_Nov_25_1449;iat_vr;59.85919919268545;
7;BAUM;Natur;p;0;0;0;0;q;0;1.3737469999978202;002;ARSF95;2019_Nov_25_1449;iat_vr;59.85919919268545;
7;POSITIV;positiv;p;0;1;1;18;p;1;0.6806111999976565;002;ARSF95;2019_Nov_25_1449;iat_vr;59.85919919268545;
7;NEGATIV;negativ;q;0;2;2;12;q;1;0.7482801000005566;002;ARSF95;2019_Nov_25_1449;iat_vr;59.85919919268545;
7;COMPUTER;Gemacht;q;0;3;3;8;q;1;0.6300082999987353;002;ARSF95;2019_Nov_25_1449;iat_vr;59.85919919268545;
7;GEBÄUDE;Gemacht;q;0;4;4;5;q;1;0.6307684000021254;002;ARSF95;2019_Nov_25_1449;iat_vr;59.85919919268545;
7;WASSER;Natur;p;0;5;5;1;p;1;0.6150620999978855;002;ARSF95;2019_Nov_25_1449;iat_vr;59.85919919268545;
7;LAMPE;Gemacht;q;0;6;6;9;q;1;0.6821168000024045;002;ARSF95;2019_Nov_25_1449;iat_vr;59.85919919268545;
7;STADT;Gemacht;q;0;7;7;6;q;1;0.6152681999992637;002;ARSF95;2019_Nov_25_1449;iat_vr;59.85919919268545;
7;BLUME;Natur;p;0;8;8;2;q;0;0.5987749000014446;002;ARSF95;2019_Nov_25_1449;iat_vr;59.85919919268545;
7;SCHLECHT;negativ;q;0;9;9;11;q;1;1.021503500000108;002;ARSF95;2019_Nov_25_1449;iat_vr;59.85919919268545;
7;AUSGEZEICHNET;positiv;p;0;10;10;15;p;1;1.6954112000021269;002;ARSF95;2019_Nov_25_1449;iat_vr;59.85919919268545;
7;GUT;positiv;p;0;11;11;19;p;1;0.6158568999999261;002;ARSF95;2019_Nov_25_1449;iat_vr;59.85919919268545;
7;SCHWACH;negativ;q;0;12;12;14;q;1;0.8974793999987014;002;ARSF95;2019_Nov_25_1449;iat_vr;59.85919919268545;
7;EINWANDFREI;positiv;p;0;13;13;16;p;1;0.8190113000018755;002;ARSF95;2019_Nov_25_1449;iat_vr;59.85919919268545;
7;TIER;Natur;p;0;14;14;3;p;1;0.6440453999966849;002;ARSF95;2019_Nov_25_1449;iat_vr;59.85919919268545;
7;STEIN;Natur;p;0;15;15;4;p;1;0.562215499998274;002;ARSF95;2019_Nov_25_1449;iat_vr;59.85919919268545;
7;HERVORRAGEND;positiv;p;0;16;16;17;p;1;0.6457104000000982;002;ARSF95;2019_Nov_25_1449;iat_vr;59.85919919268545;
7;KLEIDER;Gemacht;q;0;17;17;7;q;1;0.5959638000022096;002;ARSF95;2019_Nov_25_1449;iat_vr;59.85919919268545;
7;SCHÄDLICH;negativ;q;0;18;18;13;q;1;0.5749924000010651;002;ARSF95;2019_Nov_25_1449;iat_vr;59.85919919268545;
7;SCHLIMM;negativ;q;0;19;19;10;q;1;0.6148370999981125;002;ARSF95;2019_Nov_25_1449;iat_vr;59.85919919268545;
7;STADT;Gemacht;q;1;0;20;6;q;1;0.6144268000025477;002;ARSF95;2019_Nov_25_1449;iat_vr;59.85919919268545;
7;GUT;positiv;p;1;1;21;19;p;1;0.5484633999985817;002;ARSF95;2019_Nov_25_1449;iat_vr;59.85919919268545;
7;STEIN;Natur;p;1;2;22;4;p;1;0.6818292999996629;002;ARSF95;2019_Nov_25_1449;iat_vr;59.85919919268545;
7;LAMPE;Gemacht;q;1;3;23;9;q;1;0.5810093000000052;002;ARSF95;2019_Nov_25_1449;iat_vr;59.85919919268545;
7;SCHWACH;negativ;q;1;4;24;14;q;1;0.7445569000010437;002;ARSF95;2019_Nov_25_1449;iat_vr;59.85919919268545;
7;COMPUTER;Gemacht;q;1;5;25;8;p;0;0.580518700000539;002;ARSF95;2019_Nov_25_1449;iat_vr;59.85919919268545;
7;GEBÄUDE;Gemacht;q;1;6;26;5;q;1;0.7141468999980134;002;ARSF95;2019_Nov_25_1449;iat_vr;59.85919919268545;
7;SCHLECHT;negativ;q;1;7;27;11;q;1;1.2802359000015713;002;ARSF95;2019_Nov_25_1449;iat_vr;59.85919919268545;
7;WASSER;Natur;p;1;8;28;1;p;1;0.5815373999976146;002;ARSF95;2019_Nov_25_1449;iat_vr;59.85919919268545;
7;NEGATIV;negativ;q;1;9;29;12;q;1;0.9802979000014602;002;ARSF95;2019_Nov_25_1449;iat_vr;59.85919919268545;
7;BLUME;Natur;p;1;10;30;2;p;1;0.8833761999994749;002;ARSF95;2019_Nov_25_1449;iat_vr;59.85919919268545;
7;BAUM;Natur;p;1;11;31;0;p;1;0.5487370000009832;002;ARSF95;2019_Nov_25_1449;iat_vr;59.85919919268545;
7;HERVORRAGEND;positiv;p;1;12;32;17;p;1;0.6920200000022305;002;ARSF95;2019_Nov_25_1449;iat_vr;59.85919919268545;
7;EINWANDFREI;positiv;p;1;13;33;16;p;1;0.7799950000007811;002;ARSF95;2019_Nov_25_1449;iat_vr;59.85919919268545;
7;SCHLIMM;negativ;q;1;14;34;10;q;1;0.7823265000006359;002;ARSF95;2019_Nov_25_1449;iat_vr;59.85919919268545;
7;POSITIV;positiv;p;1;15;35;18;p;1;1.3633558999972593;002;ARSF95;2019_Nov_25_1449;iat_vr;59.85919919268545;
7;TIER;Natur;p;1;16;36;3;q;0;0.6818606000015279;002;ARSF95;2019_Nov_25_1449;iat_vr;59.85919919268545;
7;AUSGEZEICHNET;positiv;p;1;17;37;15;p;1;0.6110775999986799;002;ARSF95;2019_Nov_25_1449;iat_vr;59.85919919268545;
7;KLEIDER;Gemacht;q;1;18;38;7;q;1;0.6808467000009841;002;ARSF95;2019_Nov_25_1449;iat_vr;59.85919919268545;
7;SCHÄDLICH;negativ;q;1;19;39;13;q;1;0.6706497999985004;002;ARSF95;2019_Nov_25_1449;iat_vr;59.85919919268545;
;;;;;;;;;;;002;ARSF95;2019_Nov_25_1449;iat_vr;59.85919919268545;
