Block;Word;Category;CorrResp;trials.thisRepN;trials.thisTrialN;trials.thisN;trials.thisIndex;key_resp_2.keys;key_resp_2.corr;key_resp_2.rt;session;participant;date;expName;frameRate;
1;BAUM;Natur;q;0;0;0;0;q;1;0.861475599998812;002;ASCH96;2019_Nov_28_1407;iat_vr;59.59482669179586;
1;KLEIDER;Gemacht;p;0;1;1;7;p;1;0.7773873000005551;002;ASCH96;2019_Nov_28_1407;iat_vr;59.59482669179586;
1;STADT;Gemacht;p;0;2;2;6;p;1;0.723966699999437;002;ASCH96;2019_Nov_28_1407;iat_vr;59.59482669179586;
1;COMPUTER;Gemacht;p;0;3;3;8;p;1;0.5324823999981163;002;ASCH96;2019_Nov_28_1407;iat_vr;59.59482669179586;
1;WASSER;Natur;q;0;4;4;1;q;1;0.6609927999998035;002;ASCH96;2019_Nov_28_1407;iat_vr;59.59482669179586;
1;LAMPE;Gemacht;p;0;5;5;9;p;1;0.7128908000013325;002;ASCH96;2019_Nov_28_1407;iat_vr;59.59482669179586;
1;BLUME;Natur;q;0;6;6;2;q;1;0.8331804999979795;002;ASCH96;2019_Nov_28_1407;iat_vr;59.59482669179586;
1;GEBÄUDE;Gemacht;p;0;7;7;5;p;1;0.6611859999975422;002;ASCH96;2019_Nov_28_1407;iat_vr;59.59482669179586;
1;STEIN;Natur;q;0;8;8;4;q;1;1.3785318999980518;002;ASCH96;2019_Nov_28_1407;iat_vr;59.59482669179586;
1;TIER;Natur;q;0;9;9;3;q;1;0.6492710999991687;002;ASCH96;2019_Nov_28_1407;iat_vr;59.59482669179586;
1;LAMPE;Gemacht;p;1;0;10;9;p;1;0.701290599998174;002;ASCH96;2019_Nov_28_1407;iat_vr;59.59482669179586;
1;BLUME;Natur;q;1;1;11;2;q;1;0.6332865999975184;002;ASCH96;2019_Nov_28_1407;iat_vr;59.59482669179586;
1;BAUM;Natur;q;1;2;12;0;q;1;0.6823279000018374;002;ASCH96;2019_Nov_28_1407;iat_vr;59.59482669179586;
1;COMPUTER;Gemacht;p;1;3;13;8;p;1;0.8120263999990129;002;ASCH96;2019_Nov_28_1407;iat_vr;59.59482669179586;
1;TIER;Natur;q;1;4;14;3;q;1;0.7863470999982383;002;ASCH96;2019_Nov_28_1407;iat_vr;59.59482669179586;
1;GEBÄUDE;Gemacht;p;1;5;15;5;p;1;0.6305671999980405;002;ASCH96;2019_Nov_28_1407;iat_vr;59.59482669179586;
1;KLEIDER;Gemacht;p;1;6;16;7;p;1;0.5640999999995984;002;ASCH96;2019_Nov_28_1407;iat_vr;59.59482669179586;
1;STEIN;Natur;q;1;7;17;4;q;1;0.780573899999581;002;ASCH96;2019_Nov_28_1407;iat_vr;59.59482669179586;
1;STADT;Gemacht;p;1;8;18;6;p;1;1.2805053999982192;002;ASCH96;2019_Nov_28_1407;iat_vr;59.59482669179586;
1;WASSER;Natur;q;1;9;19;1;q;1;0.9961715999997978;002;ASCH96;2019_Nov_28_1407;iat_vr;59.59482669179586;
;;;;;;;;;;;002;ASCH96;2019_Nov_28_1407;iat_vr;59.59482669179586;
2;SCHLIMM;negativ;q;0;0;0;0;q;1;0.7218043000029866;002;ASCH96;2019_Nov_28_1407;iat_vr;59.59482669179586;
2;AUSGEZEICHNET;positiv;p;0;1;1;5;p;1;0.7418359000002965;002;ASCH96;2019_Nov_28_1407;iat_vr;59.59482669179586;
2;SCHWACH;negativ;q;0;2;2;4;q;1;0.7298904000017501;002;ASCH96;2019_Nov_28_1407;iat_vr;59.59482669179586;
2;HERVORRAGEND;positiv;p;0;3;3;7;p;1;0.7047467999982473;002;ASCH96;2019_Nov_28_1407;iat_vr;59.59482669179586;
2;GUT;positiv;p;0;4;4;9;p;1;0.816017400000419;002;ASCH96;2019_Nov_28_1407;iat_vr;59.59482669179586;
2;SCHÄDLICH;negativ;q;0;5;5;3;q;1;1.2692993999989994;002;ASCH96;2019_Nov_28_1407;iat_vr;59.59482669179586;
2;POSITIV;positiv;p;0;6;6;8;p;1;0.6978815999973449;002;ASCH96;2019_Nov_28_1407;iat_vr;59.59482669179586;
2;NEGATIV;negativ;q;0;7;7;2;q;1;0.6967430000004242;002;ASCH96;2019_Nov_28_1407;iat_vr;59.59482669179586;
2;SCHLECHT;negativ;q;0;8;8;1;q;1;0.818653299997095;002;ASCH96;2019_Nov_28_1407;iat_vr;59.59482669179586;
2;EINWANDFREI;positiv;p;0;9;9;6;p;1;1.0438130000002275;002;ASCH96;2019_Nov_28_1407;iat_vr;59.59482669179586;
2;HERVORRAGEND;positiv;p;1;0;10;7;p;1;0.8522575999995752;002;ASCH96;2019_Nov_28_1407;iat_vr;59.59482669179586;
2;EINWANDFREI;positiv;p;1;1;11;6;p;1;1.1116604000017105;002;ASCH96;2019_Nov_28_1407;iat_vr;59.59482669179586;
2;AUSGEZEICHNET;positiv;p;1;2;12;5;p;1;0.668809800001327;002;ASCH96;2019_Nov_28_1407;iat_vr;59.59482669179586;
2;GUT;positiv;p;1;3;13;9;p;1;0.6106846000002406;002;ASCH96;2019_Nov_28_1407;iat_vr;59.59482669179586;
2;SCHWACH;negativ;q;1;4;14;4;q;1;0.6353516999988642;002;ASCH96;2019_Nov_28_1407;iat_vr;59.59482669179586;
2;SCHLECHT;negativ;q;1;5;15;1;q;1;0.5642440999981773;002;ASCH96;2019_Nov_28_1407;iat_vr;59.59482669179586;
2;SCHLIMM;negativ;q;1;6;16;0;q;1;0.6341589000003296;002;ASCH96;2019_Nov_28_1407;iat_vr;59.59482669179586;
2;SCHÄDLICH;negativ;q;1;7;17;3;q;1;0.7495966999995289;002;ASCH96;2019_Nov_28_1407;iat_vr;59.59482669179586;
2;POSITIV;positiv;p;1;8;18;8;p;1;0.5801065000014205;002;ASCH96;2019_Nov_28_1407;iat_vr;59.59482669179586;
2;NEGATIV;negativ;q;1;9;19;2;q;1;0.6978383999994549;002;ASCH96;2019_Nov_28_1407;iat_vr;59.59482669179586;
;;;;;;;;;;;002;ASCH96;2019_Nov_28_1407;iat_vr;59.59482669179586;
3;EINWANDFREI;positiv;p;0;0;0;6;p;1;1.7946416000013414;002;ASCH96;2019_Nov_28_1407;iat_vr;59.59482669179586;
3;KLEIDER;Gemacht;p;0;1;1;17;p;1;1.3658412999975553;002;ASCH96;2019_Nov_28_1407;iat_vr;59.59482669179586;
3;SCHLECHT;negativ;q;0;2;2;1;p;0;0.9623566000009305;002;ASCH96;2019_Nov_28_1407;iat_vr;59.59482669179586;
3;WASSER;Natur;q;0;3;3;11;q;1;1.112700000001496;002;ASCH96;2019_Nov_28_1407;iat_vr;59.59482669179586;
3;COMPUTER;Gemacht;p;0;4;4;18;p;1;0.7790091999995639;002;ASCH96;2019_Nov_28_1407;iat_vr;59.59482669179586;
3;AUSGEZEICHNET;positiv;p;0;5;5;5;p;1;2.6776171999990765;002;ASCH96;2019_Nov_28_1407;iat_vr;59.59482669179586;
3;SCHWACH;negativ;q;0;6;6;4;q;1;1.0152430000016466;002;ASCH96;2019_Nov_28_1407;iat_vr;59.59482669179586;
3;SCHÄDLICH;negativ;q;0;7;7;3;q;1;1.4640794999977516;002;ASCH96;2019_Nov_28_1407;iat_vr;59.59482669179586;
3;SCHLIMM;negativ;q;0;8;8;0;q;1;0.5812105000004522;002;ASCH96;2019_Nov_28_1407;iat_vr;59.59482669179586;
3;GEBÄUDE;Gemacht;p;0;9;9;15;p;1;0.9192014999971434;002;ASCH96;2019_Nov_28_1407;iat_vr;59.59482669179586;
3;TIER;Natur;q;0;10;10;13;q;1;1.1161148999999568;002;ASCH96;2019_Nov_28_1407;iat_vr;59.59482669179586;
3;BAUM;Natur;q;0;11;11;10;q;1;0.6150682000006782;002;ASCH96;2019_Nov_28_1407;iat_vr;59.59482669179586;
3;HERVORRAGEND;positiv;p;0;12;12;7;p;1;1.1841800999973202;002;ASCH96;2019_Nov_28_1407;iat_vr;59.59482669179586;
3;BLUME;Natur;q;0;13;13;12;q;1;1.1956548999987717;002;ASCH96;2019_Nov_28_1407;iat_vr;59.59482669179586;
3;LAMPE;Gemacht;p;0;14;14;19;p;1;0.7835699999995995;002;ASCH96;2019_Nov_28_1407;iat_vr;59.59482669179586;
3;STADT;Gemacht;p;0;15;15;16;p;1;0.9845232000006945;002;ASCH96;2019_Nov_28_1407;iat_vr;59.59482669179586;
3;STEIN;Natur;q;0;16;16;14;q;1;1.0309487000013178;002;ASCH96;2019_Nov_28_1407;iat_vr;59.59482669179586;
3;GUT;positiv;p;0;17;17;9;p;1;1.2333620999997947;002;ASCH96;2019_Nov_28_1407;iat_vr;59.59482669179586;
3;NEGATIV;negativ;q;0;18;18;2;q;1;0.9141070000005129;002;ASCH96;2019_Nov_28_1407;iat_vr;59.59482669179586;
3;POSITIV;positiv;p;0;19;19;8;p;1;0.8804608999998891;002;ASCH96;2019_Nov_28_1407;iat_vr;59.59482669179586;
;;;;;;;;;;;002;ASCH96;2019_Nov_28_1407;iat_vr;59.59482669179586;
4;SCHWACH;negativ;q;0;0;0;4;q;1;0.9996839000014006;002;ASCH96;2019_Nov_28_1407;iat_vr;59.59482669179586;
4;LAMPE;Gemacht;p;0;1;1;19;p;1;1.652543100000912;002;ASCH96;2019_Nov_28_1407;iat_vr;59.59482669179586;
4;NEGATIV;negativ;q;0;2;2;2;q;1;0.9294867999997223;002;ASCH96;2019_Nov_28_1407;iat_vr;59.59482669179586;
4;POSITIV;positiv;p;0;3;3;8;p;1;0.8293812999982038;002;ASCH96;2019_Nov_28_1407;iat_vr;59.59482669179586;
4;KLEIDER;Gemacht;p;0;4;4;17;p;1;1.2155697000016517;002;ASCH96;2019_Nov_28_1407;iat_vr;59.59482669179586;
4;BAUM;Natur;q;0;5;5;10;q;1;0.7975895999989007;002;ASCH96;2019_Nov_28_1407;iat_vr;59.59482669179586;
4;SCHLIMM;negativ;q;0;6;6;0;q;1;0.8990936000009242;002;ASCH96;2019_Nov_28_1407;iat_vr;59.59482669179586;
4;GEBÄUDE;Gemacht;p;0;7;7;15;p;1;0.7808702000002086;002;ASCH96;2019_Nov_28_1407;iat_vr;59.59482669179586;
4;TIER;Natur;q;0;8;8;13;q;1;1.065563199997996;002;ASCH96;2019_Nov_28_1407;iat_vr;59.59482669179586;
4;HERVORRAGEND;positiv;p;0;9;9;7;p;1;0.9434415000032459;002;ASCH96;2019_Nov_28_1407;iat_vr;59.59482669179586;
4;EINWANDFREI;positiv;p;0;10;10;6;p;1;1.1117172000012943;002;ASCH96;2019_Nov_28_1407;iat_vr;59.59482669179586;
4;AUSGEZEICHNET;positiv;p;0;11;11;5;p;1;1.397621000000072;002;ASCH96;2019_Nov_28_1407;iat_vr;59.59482669179586;
4;WASSER;Natur;q;0;12;12;11;q;1;1.0143630999991728;002;ASCH96;2019_Nov_28_1407;iat_vr;59.59482669179586;
4;SCHÄDLICH;negativ;q;0;13;13;3;q;1;0.8495758999997634;002;ASCH96;2019_Nov_28_1407;iat_vr;59.59482669179586;
4;STADT;Gemacht;p;0;14;14;16;q;0;0.8815863000017998;002;ASCH96;2019_Nov_28_1407;iat_vr;59.59482669179586;
4;GUT;positiv;p;0;15;15;9;p;1;0.33107509999899776;002;ASCH96;2019_Nov_28_1407;iat_vr;59.59482669179586;
4;COMPUTER;Gemacht;p;0;16;16;18;p;1;1.952111500002502;002;ASCH96;2019_Nov_28_1407;iat_vr;59.59482669179586;
4;BLUME;Natur;q;0;17;17;12;q;1;0.6878250000008848;002;ASCH96;2019_Nov_28_1407;iat_vr;59.59482669179586;
4;SCHLECHT;negativ;q;0;18;18;1;q;1;0.6959773000016867;002;ASCH96;2019_Nov_28_1407;iat_vr;59.59482669179586;
4;STEIN;Natur;q;0;19;19;14;p;0;0.7508443999977317;002;ASCH96;2019_Nov_28_1407;iat_vr;59.59482669179586;
4;STEIN;Natur;q;1;0;20;14;q;1;0.5511024999977963;002;ASCH96;2019_Nov_28_1407;iat_vr;59.59482669179586;
4;SCHLIMM;negativ;q;1;1;21;0;q;1;2.0130573000024015;002;ASCH96;2019_Nov_28_1407;iat_vr;59.59482669179586;
4;GUT;positiv;p;1;2;22;9;p;1;1.2322894999997516;002;ASCH96;2019_Nov_28_1407;iat_vr;59.59482669179586;
4;BLUME;Natur;q;1;3;23;12;q;1;0.9148429999986547;002;ASCH96;2019_Nov_28_1407;iat_vr;59.59482669179586;
4;STADT;Gemacht;p;1;4;24;16;p;1;0.8313148000015644;002;ASCH96;2019_Nov_28_1407;iat_vr;59.59482669179586;
4;SCHWACH;negativ;q;1;5;25;4;q;1;3.1133095000004687;002;ASCH96;2019_Nov_28_1407;iat_vr;59.59482669179586;
4;POSITIV;positiv;p;1;6;26;8;p;1;0.9312785000001895;002;ASCH96;2019_Nov_28_1407;iat_vr;59.59482669179586;
4;TIER;Natur;q;1;7;27;13;q;1;0.8666204000001017;002;ASCH96;2019_Nov_28_1407;iat_vr;59.59482669179586;
4;WASSER;Natur;q;1;8;28;11;q;1;0.6794038999978511;002;ASCH96;2019_Nov_28_1407;iat_vr;59.59482669179586;
4;BAUM;Natur;q;1;9;29;10;q;1;0.682263900001999;002;ASCH96;2019_Nov_28_1407;iat_vr;59.59482669179586;
4;COMPUTER;Gemacht;p;1;10;30;18;p;1;1.0503625999990618;002;ASCH96;2019_Nov_28_1407;iat_vr;59.59482669179586;
4;LAMPE;Gemacht;p;1;11;31;19;p;1;1.1847300000008545;002;ASCH96;2019_Nov_28_1407;iat_vr;59.59482669179586;
4;AUSGEZEICHNET;positiv;p;1;12;32;5;p;1;1.5023574000006192;002;ASCH96;2019_Nov_28_1407;iat_vr;59.59482669179586;
4;EINWANDFREI;positiv;p;1;13;33;6;p;1;0.6411432999993849;002;ASCH96;2019_Nov_28_1407;iat_vr;59.59482669179586;
4;SCHÄDLICH;negativ;q;1;14;34;3;q;1;0.762973900000361;002;ASCH96;2019_Nov_28_1407;iat_vr;59.59482669179586;
4;GEBÄUDE;Gemacht;p;1;15;35;15;p;1;1.4794313999991573;002;ASCH96;2019_Nov_28_1407;iat_vr;59.59482669179586;
4;KLEIDER;Gemacht;p;1;16;36;17;p;1;0.73372179999933;002;ASCH96;2019_Nov_28_1407;iat_vr;59.59482669179586;
4;SCHLECHT;negativ;q;1;17;37;1;q;1;0.8954519999970216;002;ASCH96;2019_Nov_28_1407;iat_vr;59.59482669179586;
4;HERVORRAGEND;positiv;p;1;18;38;7;p;1;0.8452189999989059;002;ASCH96;2019_Nov_28_1407;iat_vr;59.59482669179586;
4;NEGATIV;negativ;q;1;19;39;2;q;1;0.7805455000016082;002;ASCH96;2019_Nov_28_1407;iat_vr;59.59482669179586;
;;;;;;;;;;;002;ASCH96;2019_Nov_28_1407;iat_vr;59.59482669179586;
5;LAMPE;Gemacht;q;0;0;0;9;q;1;5.606010999999853;002;ASCH96;2019_Nov_28_1407;iat_vr;59.59482669179586;
5;KLEIDER;Gemacht;q;0;1;1;7;q;1;0.8463317999994615;002;ASCH96;2019_Nov_28_1407;iat_vr;59.59482669179586;
5;GEBÄUDE;Gemacht;q;0;2;2;5;q;1;0.9125098999975307;002;ASCH96;2019_Nov_28_1407;iat_vr;59.59482669179586;
5;STADT;Gemacht;q;0;3;3;6;q;1;0.8522661999995762;002;ASCH96;2019_Nov_28_1407;iat_vr;59.59482669179586;
5;TIER;Natur;p;0;4;4;3;p;1;0.6190528000006452;002;ASCH96;2019_Nov_28_1407;iat_vr;59.59482669179586;
5;BLUME;Natur;p;0;5;5;2;p;1;0.9271778000002087;002;ASCH96;2019_Nov_28_1407;iat_vr;59.59482669179586;
5;STEIN;Natur;p;0;6;6;4;p;1;0.5771280000008119;002;ASCH96;2019_Nov_28_1407;iat_vr;59.59482669179586;
5;WASSER;Natur;p;0;7;7;1;p;1;0.5800419000006514;002;ASCH96;2019_Nov_28_1407;iat_vr;59.59482669179586;
5;COMPUTER;Gemacht;q;0;8;8;8;q;1;0.7185113000014098;002;ASCH96;2019_Nov_28_1407;iat_vr;59.59482669179586;
5;BAUM;Natur;p;0;9;9;0;p;1;0.5187999999980093;002;ASCH96;2019_Nov_28_1407;iat_vr;59.59482669179586;
5;STADT;Gemacht;q;1;0;10;6;q;1;1.1147696000007272;002;ASCH96;2019_Nov_28_1407;iat_vr;59.59482669179586;
5;WASSER;Natur;p;1;1;11;1;p;1;0.7307576000021072;002;ASCH96;2019_Nov_28_1407;iat_vr;59.59482669179586;
5;TIER;Natur;p;1;2;12;3;p;1;1.2480405999995128;002;ASCH96;2019_Nov_28_1407;iat_vr;59.59482669179586;
5;STEIN;Natur;p;1;3;13;4;p;1;0.5994194000013522;002;ASCH96;2019_Nov_28_1407;iat_vr;59.59482669179586;
5;COMPUTER;Gemacht;q;1;4;14;8;q;1;0.6116480000018782;002;ASCH96;2019_Nov_28_1407;iat_vr;59.59482669179586;
5;BAUM;Natur;p;1;5;15;0;p;1;0.5340802999999141;002;ASCH96;2019_Nov_28_1407;iat_vr;59.59482669179586;
5;GEBÄUDE;Gemacht;q;1;6;16;5;q;1;0.7020642999996198;002;ASCH96;2019_Nov_28_1407;iat_vr;59.59482669179586;
5;LAMPE;Gemacht;q;1;7;17;9;p;0;0.6164502999999968;002;ASCH96;2019_Nov_28_1407;iat_vr;59.59482669179586;
5;KLEIDER;Gemacht;q;1;8;18;7;q;1;0.32911150000290945;002;ASCH96;2019_Nov_28_1407;iat_vr;59.59482669179586;
5;BLUME;Natur;p;1;9;19;2;p;1;1.0855935999970825;002;ASCH96;2019_Nov_28_1407;iat_vr;59.59482669179586;
;;;;;;;;;;;002;ASCH96;2019_Nov_28_1407;iat_vr;59.59482669179586;
6;KLEIDER;Gemacht;q;0;0;0;7;q;1;0.9384300999990955;002;ASCH96;2019_Nov_28_1407;iat_vr;59.59482669179586;
6;TIER;Natur;p;0;1;1;3;p;1;1.0025247999983549;002;ASCH96;2019_Nov_28_1407;iat_vr;59.59482669179586;
6;STEIN;Natur;p;0;2;2;4;p;1;1.2692859999988286;002;ASCH96;2019_Nov_28_1407;iat_vr;59.59482669179586;
6;GEBÄUDE;Gemacht;q;0;3;3;5;q;1;0.7456175000006624;002;ASCH96;2019_Nov_28_1407;iat_vr;59.59482669179586;
6;SCHLIMM;negativ;q;0;4;4;10;q;1;0.7307415999966906;002;ASCH96;2019_Nov_28_1407;iat_vr;59.59482669179586;
6;BLUME;Natur;p;0;5;5;2;p;1;1.616438900000503;002;ASCH96;2019_Nov_28_1407;iat_vr;59.59482669179586;
6;SCHWACH;negativ;q;0;6;6;14;q;1;0.7491813999986334;002;ASCH96;2019_Nov_28_1407;iat_vr;59.59482669179586;
6;LAMPE;Gemacht;q;0;7;7;9;q;1;0.7011585000000196;002;ASCH96;2019_Nov_28_1407;iat_vr;59.59482669179586;
6;SCHÄDLICH;negativ;q;0;8;8;13;q;1;0.7462585000030231;002;ASCH96;2019_Nov_28_1407;iat_vr;59.59482669179586;
6;WASSER;Natur;p;0;9;9;1;p;1;0.7500175999994099;002;ASCH96;2019_Nov_28_1407;iat_vr;59.59482669179586;
6;STADT;Gemacht;q;0;10;10;6;q;1;0.6526593999988108;002;ASCH96;2019_Nov_28_1407;iat_vr;59.59482669179586;
6;EINWANDFREI;positiv;p;0;11;11;16;p;1;0.5935291999994661;002;ASCH96;2019_Nov_28_1407;iat_vr;59.59482669179586;
6;BAUM;Natur;p;0;12;12;0;p;1;0.6812371999985771;002;ASCH96;2019_Nov_28_1407;iat_vr;59.59482669179586;
6;POSITIV;positiv;p;0;13;13;18;p;1;0.5982100000001083;002;ASCH96;2019_Nov_28_1407;iat_vr;59.59482669179586;
6;NEGATIV;negativ;q;0;14;14;12;q;1;0.5011928000021726;002;ASCH96;2019_Nov_28_1407;iat_vr;59.59482669179586;
6;GUT;positiv;p;0;15;15;19;p;1;0.6980645999974513;002;ASCH96;2019_Nov_28_1407;iat_vr;59.59482669179586;
6;COMPUTER;Gemacht;q;0;16;16;8;q;1;0.8970423999999184;002;ASCH96;2019_Nov_28_1407;iat_vr;59.59482669179586;
6;AUSGEZEICHNET;positiv;p;0;17;17;15;p;1;0.8606618999983766;002;ASCH96;2019_Nov_28_1407;iat_vr;59.59482669179586;
6;HERVORRAGEND;positiv;p;0;18;18;17;p;1;0.6265400000011141;002;ASCH96;2019_Nov_28_1407;iat_vr;59.59482669179586;
6;SCHLECHT;negativ;q;0;19;19;11;q;1;0.6507564000021375;002;ASCH96;2019_Nov_28_1407;iat_vr;59.59482669179586;
;;;;;;;;;;;002;ASCH96;2019_Nov_28_1407;iat_vr;59.59482669179586;
7;TIER;Natur;p;0;0;0;3;p;1;0.9783596000015677;002;ASCH96;2019_Nov_28_1407;iat_vr;59.59482669179586;
7;BAUM;Natur;p;0;1;1;0;p;1;0.6499543999998423;002;ASCH96;2019_Nov_28_1407;iat_vr;59.59482669179586;
7;STADT;Gemacht;q;0;2;2;6;q;1;0.6341267000025255;002;ASCH96;2019_Nov_28_1407;iat_vr;59.59482669179586;
7;SCHLECHT;negativ;q;0;3;3;11;q;1;0.6355932000005851;002;ASCH96;2019_Nov_28_1407;iat_vr;59.59482669179586;
7;LAMPE;Gemacht;q;0;4;4;9;q;1;1.08040279999841;002;ASCH96;2019_Nov_28_1407;iat_vr;59.59482669179586;
7;SCHWACH;negativ;q;0;5;5;14;q;1;0.7637715000018943;002;ASCH96;2019_Nov_28_1407;iat_vr;59.59482669179586;
7;NEGATIV;negativ;q;0;6;6;12;q;1;0.7661291000003985;002;ASCH96;2019_Nov_28_1407;iat_vr;59.59482669179586;
7;SCHÄDLICH;negativ;q;0;7;7;13;q;1;0.746396000002278;002;ASCH96;2019_Nov_28_1407;iat_vr;59.59482669179586;
7;STEIN;Natur;p;0;8;8;4;p;1;0.6128609000006691;002;ASCH96;2019_Nov_28_1407;iat_vr;59.59482669179586;
7;AUSGEZEICHNET;positiv;p;0;9;9;15;p;1;0.6106446999983746;002;ASCH96;2019_Nov_28_1407;iat_vr;59.59482669179586;
7;POSITIV;positiv;p;0;10;10;18;q;0;0.60993519999829;002;ASCH96;2019_Nov_28_1407;iat_vr;59.59482669179586;
7;GUT;positiv;p;0;11;11;19;p;1;0.6652934000012465;002;ASCH96;2019_Nov_28_1407;iat_vr;59.59482669179586;
7;BLUME;Natur;p;0;12;12;2;p;1;0.6982541999968817;002;ASCH96;2019_Nov_28_1407;iat_vr;59.59482669179586;
7;KLEIDER;Gemacht;q;0;13;13;7;q;1;0.9808884000012768;002;ASCH96;2019_Nov_28_1407;iat_vr;59.59482669179586;
7;GEBÄUDE;Gemacht;q;0;14;14;5;q;1;0.8311051999990013;002;ASCH96;2019_Nov_28_1407;iat_vr;59.59482669179586;
7;COMPUTER;Gemacht;q;0;15;15;8;q;1;0.6755759000006947;002;ASCH96;2019_Nov_28_1407;iat_vr;59.59482669179586;
7;WASSER;Natur;p;0;16;16;1;q;0;0.7314674000008381;002;ASCH96;2019_Nov_28_1407;iat_vr;59.59482669179586;
7;HERVORRAGEND;positiv;p;0;17;17;17;p;1;0.6291249999994761;002;ASCH96;2019_Nov_28_1407;iat_vr;59.59482669179586;
7;EINWANDFREI;positiv;p;0;18;18;16;p;1;0.9326311000004353;002;ASCH96;2019_Nov_28_1407;iat_vr;59.59482669179586;
7;SCHLIMM;negativ;q;0;19;19;10;q;1;0.6520143000016105;002;ASCH96;2019_Nov_28_1407;iat_vr;59.59482669179586;
7;BAUM;Natur;p;1;0;20;0;p;1;0.9317498999989766;002;ASCH96;2019_Nov_28_1407;iat_vr;59.59482669179586;
7;WASSER;Natur;p;1;1;21;1;p;1;0.6315271999992547;002;ASCH96;2019_Nov_28_1407;iat_vr;59.59482669179586;
7;POSITIV;positiv;p;1;2;22;18;p;1;0.6636911999994481;002;ASCH96;2019_Nov_28_1407;iat_vr;59.59482669179586;
7;SCHLIMM;negativ;q;1;3;23;10;q;1;0.6354218000014953;002;ASCH96;2019_Nov_28_1407;iat_vr;59.59482669179586;
7;NEGATIV;negativ;q;1;4;24;12;q;1;0.6302844999991066;002;ASCH96;2019_Nov_28_1407;iat_vr;59.59482669179586;
7;SCHLECHT;negativ;q;1;5;25;11;q;1;0.6124584000026516;002;ASCH96;2019_Nov_28_1407;iat_vr;59.59482669179586;
7;SCHWACH;negativ;q;1;6;26;14;q;1;0.9333980000010342;002;ASCH96;2019_Nov_28_1407;iat_vr;59.59482669179586;
7;STADT;Gemacht;q;1;7;27;6;q;1;0.6784101000012015;002;ASCH96;2019_Nov_28_1407;iat_vr;59.59482669179586;
7;GUT;positiv;p;1;8;28;19;p;1;0.6299820999993244;002;ASCH96;2019_Nov_28_1407;iat_vr;59.59482669179586;
7;COMPUTER;Gemacht;q;1;9;29;8;q;1;0.7004302999994252;002;ASCH96;2019_Nov_28_1407;iat_vr;59.59482669179586;
7;HERVORRAGEND;positiv;p;1;10;30;17;p;1;0.5835953999994672;002;ASCH96;2019_Nov_28_1407;iat_vr;59.59482669179586;
7;KLEIDER;Gemacht;q;1;11;31;7;q;1;0.783627400000114;002;ASCH96;2019_Nov_28_1407;iat_vr;59.59482669179586;
7;GEBÄUDE;Gemacht;q;1;12;32;5;q;1;0.7304686999996193;002;ASCH96;2019_Nov_28_1407;iat_vr;59.59482669179586;
7;BLUME;Natur;p;1;13;33;2;p;1;0.6355151999996451;002;ASCH96;2019_Nov_28_1407;iat_vr;59.59482669179586;
7;STEIN;Natur;p;1;14;34;4;p;1;0.5645599999988917;002;ASCH96;2019_Nov_28_1407;iat_vr;59.59482669179586;
7;AUSGEZEICHNET;positiv;p;1;15;35;15;p;1;0.7765608999980032;002;ASCH96;2019_Nov_28_1407;iat_vr;59.59482669179586;
7;SCHÄDLICH;negativ;q;1;16;36;13;q;1;0.6968280000000959;002;ASCH96;2019_Nov_28_1407;iat_vr;59.59482669179586;
7;TIER;Natur;p;1;17;37;3;p;1;0.6655988000020443;002;ASCH96;2019_Nov_28_1407;iat_vr;59.59482669179586;
7;LAMPE;Gemacht;q;1;18;38;9;q;1;0.8683278999997128;002;ASCH96;2019_Nov_28_1407;iat_vr;59.59482669179586;
7;EINWANDFREI;positiv;p;1;19;39;16;p;1;0.8335131999992882;002;ASCH96;2019_Nov_28_1407;iat_vr;59.59482669179586;
;;;;;;;;;;;002;ASCH96;2019_Nov_28_1407;iat_vr;59.59482669179586;
