Block;Word;Category;CorrResp;trials.thisRepN;trials.thisTrialN;trials.thisN;trials.thisIndex;key_resp_2.keys;key_resp_2.corr;key_resp_2.rt;session;participant;date;expName;frameRate;
1;COMPUTER;Gemacht;p;0;0;0;8;p;1;1.4898619999985385;001;ASDB98;2019_Nov_28_1638;iat_vr;60.05064671484583;
1;GEBÄUDE;Gemacht;p;0;1;1;5;p;1;0.8335712999978568;001;ASDB98;2019_Nov_28_1638;iat_vr;60.05064671484583;
1;BLUME;Natur;q;0;2;2;2;q;1;0.7168925000005402;001;ASDB98;2019_Nov_28_1638;iat_vr;60.05064671484583;
1;TIER;Natur;q;0;3;3;3;q;1;0.7669352000011713;001;ASDB98;2019_Nov_28_1638;iat_vr;60.05064671484583;
1;KLEIDER;Gemacht;p;0;4;4;7;p;1;1.3169483999990916;001;ASDB98;2019_Nov_28_1638;iat_vr;60.05064671484583;
1;WASSER;Natur;q;0;5;5;1;q;1;1.4835372999987158;001;ASDB98;2019_Nov_28_1638;iat_vr;60.05064671484583;
1;STADT;Gemacht;p;0;6;6;6;q;0;2.0002031000003626;001;ASDB98;2019_Nov_28_1638;iat_vr;60.05064671484583;
1;LAMPE;Gemacht;p;0;7;7;9;p;1;1.3503329000013764;001;ASDB98;2019_Nov_28_1638;iat_vr;60.05064671484583;
1;STEIN;Natur;q;0;8;8;4;q;1;0.7269153000015649;001;ASDB98;2019_Nov_28_1638;iat_vr;60.05064671484583;
1;BAUM;Natur;q;0;9;9;0;q;1;0.6654551000028732;001;ASDB98;2019_Nov_28_1638;iat_vr;60.05064671484583;
1;KLEIDER;Gemacht;p;1;0;10;7;p;1;2.164295700000366;001;ASDB98;2019_Nov_28_1638;iat_vr;60.05064671484583;
1;STEIN;Natur;q;1;1;11;4;q;1;0.8149297000018123;001;ASDB98;2019_Nov_28_1638;iat_vr;60.05064671484583;
1;COMPUTER;Gemacht;p;1;2;12;8;p;1;1.447384700000839;001;ASDB98;2019_Nov_28_1638;iat_vr;60.05064671484583;
1;BLUME;Natur;q;1;3;13;2;q;1;0.6654459000019415;001;ASDB98;2019_Nov_28_1638;iat_vr;60.05064671484583;
1;GEBÄUDE;Gemacht;p;1;4;14;5;p;1;0.8477792000012414;001;ASDB98;2019_Nov_28_1638;iat_vr;60.05064671484583;
1;STADT;Gemacht;p;1;5;15;6;p;1;0.9976325999996334;001;ASDB98;2019_Nov_28_1638;iat_vr;60.05064671484583;
1;BAUM;Natur;q;1;6;16;0;q;1;0.8148605999995198;001;ASDB98;2019_Nov_28_1638;iat_vr;60.05064671484583;
1;LAMPE;Gemacht;p;1;7;17;9;p;1;1.2312634999980219;001;ASDB98;2019_Nov_28_1638;iat_vr;60.05064671484583;
1;WASSER;Natur;q;1;8;18;1;q;1;0.6143564000012702;001;ASDB98;2019_Nov_28_1638;iat_vr;60.05064671484583;
1;TIER;Natur;q;1;9;19;3;q;1;1.0650314999984403;001;ASDB98;2019_Nov_28_1638;iat_vr;60.05064671484583;
;;;;;;;;;;;001;ASDB98;2019_Nov_28_1638;iat_vr;60.05064671484583;
2;SCHWACH;negativ;q;0;0;0;4;q;1;6.084990899998957;001;ASDB98;2019_Nov_28_1638;iat_vr;60.05064671484583;
2;SCHLIMM;negativ;q;0;1;1;0;q;1;1.2315739999976358;001;ASDB98;2019_Nov_28_1638;iat_vr;60.05064671484583;
2;EINWANDFREI;positiv;p;0;2;2;6;p;1;0.7441663999998127;001;ASDB98;2019_Nov_28_1638;iat_vr;60.05064671484583;
2;SCHLECHT;negativ;q;0;3;3;1;q;1;0.6480116999991878;001;ASDB98;2019_Nov_28_1638;iat_vr;60.05064671484583;
2;POSITIV;positiv;p;0;4;4;8;p;1;1.0093678000012005;001;ASDB98;2019_Nov_28_1638;iat_vr;60.05064671484583;
2;SCHÄDLICH;negativ;q;0;5;5;3;q;1;0.6970737000010558;001;ASDB98;2019_Nov_28_1638;iat_vr;60.05064671484583;
2;NEGATIV;negativ;q;0;6;6;2;q;1;0.9806069000005664;001;ASDB98;2019_Nov_28_1638;iat_vr;60.05064671484583;
2;HERVORRAGEND;positiv;p;0;7;7;7;p;1;0.8600440000009257;001;ASDB98;2019_Nov_28_1638;iat_vr;60.05064671484583;
2;GUT;positiv;p;0;8;8;9;p;1;0.549082699999417;001;ASDB98;2019_Nov_28_1638;iat_vr;60.05064671484583;
2;AUSGEZEICHNET;positiv;p;0;9;9;5;p;1;0.5927207999993698;001;ASDB98;2019_Nov_28_1638;iat_vr;60.05064671484583;
2;SCHÄDLICH;negativ;q;1;0;10;3;q;1;0.646379199999501;001;ASDB98;2019_Nov_28_1638;iat_vr;60.05064671484583;
2;NEGATIV;negativ;q;1;1;11;2;q;1;1.0645003999998153;001;ASDB98;2019_Nov_28_1638;iat_vr;60.05064671484583;
2;AUSGEZEICHNET;positiv;p;1;2;12;5;p;1;0.8112142000027234;001;ASDB98;2019_Nov_28_1638;iat_vr;60.05064671484583;
2;HERVORRAGEND;positiv;p;1;3;13;7;p;1;0.7904816000009305;001;ASDB98;2019_Nov_28_1638;iat_vr;60.05064671484583;
2;POSITIV;positiv;p;1;4;14;8;p;1;0.8475428000019747;001;ASDB98;2019_Nov_28_1638;iat_vr;60.05064671484583;
2;SCHLIMM;negativ;q;1;5;15;0;p;0;0.913707699997758;001;ASDB98;2019_Nov_28_1638;iat_vr;60.05064671484583;
2;EINWANDFREI;positiv;p;1;6;16;6;p;1;1.5291566000014427;001;ASDB98;2019_Nov_28_1638;iat_vr;60.05064671484583;
2;SCHLECHT;negativ;q;1;7;17;1;q;1;1.8855311999977857;001;ASDB98;2019_Nov_28_1638;iat_vr;60.05064671484583;
2;SCHWACH;negativ;q;1;8;18;4;q;1;0.6641607999990811;001;ASDB98;2019_Nov_28_1638;iat_vr;60.05064671484583;
2;GUT;positiv;p;1;9;19;9;p;1;0.6993293999985326;001;ASDB98;2019_Nov_28_1638;iat_vr;60.05064671484583;
;;;;;;;;;;;001;ASDB98;2019_Nov_28_1638;iat_vr;60.05064671484583;
3;SCHWACH;negativ;q;0;0;0;4;q;1;1.7309968000008666;001;ASDB98;2019_Nov_28_1638;iat_vr;60.05064671484583;
3;BLUME;Natur;q;0;1;1;12;q;1;0.8318789000004472;001;ASDB98;2019_Nov_28_1638;iat_vr;60.05064671484583;
3;COMPUTER;Gemacht;p;0;2;2;18;p;1;1.2974993000025279;001;ASDB98;2019_Nov_28_1638;iat_vr;60.05064671484583;
3;TIER;Natur;q;0;3;3;13;q;1;0.8485737000009976;001;ASDB98;2019_Nov_28_1638;iat_vr;60.05064671484583;
3;SCHLIMM;negativ;q;0;4;4;0;q;1;0.8617070999971475;001;ASDB98;2019_Nov_28_1638;iat_vr;60.05064671484583;
3;SCHLECHT;negativ;q;0;5;5;1;q;1;0.7121435000008205;001;ASDB98;2019_Nov_28_1638;iat_vr;60.05064671484583;
3;STEIN;Natur;q;0;6;6;14;p;0;0.8304478999998537;001;ASDB98;2019_Nov_28_1638;iat_vr;60.05064671484583;
3;GEBÄUDE;Gemacht;p;0;7;7;15;p;1;0.8292428999993717;001;ASDB98;2019_Nov_28_1638;iat_vr;60.05064671484583;
3;GUT;positiv;p;0;8;8;9;q;0;0.8362649999980931;001;ASDB98;2019_Nov_28_1638;iat_vr;60.05064671484583;
3;KLEIDER;Gemacht;p;0;9;9;17;p;1;1.5475643999998283;001;ASDB98;2019_Nov_28_1638;iat_vr;60.05064671484583;
3;NEGATIV;negativ;q;0;10;10;2;q;1;0.8830921999979182;001;ASDB98;2019_Nov_28_1638;iat_vr;60.05064671484583;
3;STADT;Gemacht;p;0;11;11;16;p;1;0.8969280000019353;001;ASDB98;2019_Nov_28_1638;iat_vr;60.05064671484583;
3;LAMPE;Gemacht;p;0;12;12;19;p;1;0.782107700000779;001;ASDB98;2019_Nov_28_1638;iat_vr;60.05064671484583;
3;SCHÄDLICH;negativ;q;0;13;13;3;q;1;0.7279975999990711;001;ASDB98;2019_Nov_28_1638;iat_vr;60.05064671484583;
3;EINWANDFREI;positiv;p;0;14;14;6;p;1;0.7415347999994992;001;ASDB98;2019_Nov_28_1638;iat_vr;60.05064671484583;
3;AUSGEZEICHNET;positiv;p;0;15;15;5;p;1;0.6422112000000197;001;ASDB98;2019_Nov_28_1638;iat_vr;60.05064671484583;
3;HERVORRAGEND;positiv;p;0;16;16;7;p;1;0.6690387000016926;001;ASDB98;2019_Nov_28_1638;iat_vr;60.05064671484583;
3;BAUM;Natur;q;0;17;17;10;q;1;1.6525086000001465;001;ASDB98;2019_Nov_28_1638;iat_vr;60.05064671484583;
3;WASSER;Natur;q;0;18;18;11;q;1;0.5650973000010708;001;ASDB98;2019_Nov_28_1638;iat_vr;60.05064671484583;
3;POSITIV;positiv;p;0;19;19;8;p;1;1.6640759999972943;001;ASDB98;2019_Nov_28_1638;iat_vr;60.05064671484583;
;;;;;;;;;;;001;ASDB98;2019_Nov_28_1638;iat_vr;60.05064671484583;
4;STEIN;Natur;q;0;0;0;14;p;0;4.251488800000516;001;ASDB98;2019_Nov_28_1638;iat_vr;60.05064671484583;
4;SCHLIMM;negativ;q;0;1;1;0;q;1;0.7635358000006818;001;ASDB98;2019_Nov_28_1638;iat_vr;60.05064671484583;
4;KLEIDER;Gemacht;p;0;2;2;17;p;1;0.6818396999988181;001;ASDB98;2019_Nov_28_1638;iat_vr;60.05064671484583;
4;BLUME;Natur;q;0;3;3;12;q;1;2.7144853999998304;001;ASDB98;2019_Nov_28_1638;iat_vr;60.05064671484583;
4;GUT;positiv;p;0;4;4;9;p;1;1.647026899998309;001;ASDB98;2019_Nov_28_1638;iat_vr;60.05064671484583;
4;COMPUTER;Gemacht;p;0;5;5;18;p;1;0.7811586999996507;001;ASDB98;2019_Nov_28_1638;iat_vr;60.05064671484583;
4;HERVORRAGEND;positiv;p;0;6;6;7;q;0;1.19553729999825;001;ASDB98;2019_Nov_28_1638;iat_vr;60.05064671484583;
4;SCHÄDLICH;negativ;q;0;7;7;3;q;1;1.0975362999997742;001;ASDB98;2019_Nov_28_1638;iat_vr;60.05064671484583;
4;POSITIV;positiv;p;0;8;8;8;p;1;0.7299867000001541;001;ASDB98;2019_Nov_28_1638;iat_vr;60.05064671484583;
4;TIER;Natur;q;0;9;9;13;p;0;0.8142459999980929;001;ASDB98;2019_Nov_28_1638;iat_vr;60.05064671484583;
4;STADT;Gemacht;p;0;10;10;16;p;1;0.8280083999998169;001;ASDB98;2019_Nov_28_1638;iat_vr;60.05064671484583;
4;BAUM;Natur;q;0;11;11;10;q;1;0.5526227000009385;001;ASDB98;2019_Nov_28_1638;iat_vr;60.05064671484583;
4;EINWANDFREI;positiv;p;0;12;12;6;p;1;0.729757699999027;001;ASDB98;2019_Nov_28_1638;iat_vr;60.05064671484583;
4;NEGATIV;negativ;q;0;13;13;2;q;1;0.6799552000011317;001;ASDB98;2019_Nov_28_1638;iat_vr;60.05064671484583;
4;SCHLECHT;negativ;q;0;14;14;1;q;1;0.8094759000014164;001;ASDB98;2019_Nov_28_1638;iat_vr;60.05064671484583;
4;AUSGEZEICHNET;positiv;p;0;15;15;5;p;1;0.6437374999986787;001;ASDB98;2019_Nov_28_1638;iat_vr;60.05064671484583;
4;SCHWACH;negativ;q;0;16;16;4;q;1;1.1265495000006922;001;ASDB98;2019_Nov_28_1638;iat_vr;60.05064671484583;
4;LAMPE;Gemacht;p;0;17;17;19;p;1;1.1364373999967938;001;ASDB98;2019_Nov_28_1638;iat_vr;60.05064671484583;
4;WASSER;Natur;q;0;18;18;11;q;1;1.3320099000011396;001;ASDB98;2019_Nov_28_1638;iat_vr;60.05064671484583;
4;GEBÄUDE;Gemacht;p;0;19;19;15;p;1;0.681058900001517;001;ASDB98;2019_Nov_28_1638;iat_vr;60.05064671484583;
4;POSITIV;positiv;p;1;0;20;8;p;1;1.0470171000015398;001;ASDB98;2019_Nov_28_1638;iat_vr;60.05064671484583;
4;AUSGEZEICHNET;positiv;p;1;1;21;5;p;1;0.6690386000009312;001;ASDB98;2019_Nov_28_1638;iat_vr;60.05064671484583;
4;WASSER;Natur;q;1;2;22;11;q;1;0.6142409000021871;001;ASDB98;2019_Nov_28_1638;iat_vr;60.05064671484583;
4;HERVORRAGEND;positiv;p;1;3;23;7;p;1;0.7113391000020783;001;ASDB98;2019_Nov_28_1638;iat_vr;60.05064671484583;
4;COMPUTER;Gemacht;p;1;4;24;18;p;1;0.6138981000003696;001;ASDB98;2019_Nov_28_1638;iat_vr;60.05064671484583;
4;STADT;Gemacht;p;1;5;25;16;p;1;0.5653793999990739;001;ASDB98;2019_Nov_28_1638;iat_vr;60.05064671484583;
4;BAUM;Natur;q;1;6;26;10;p;0;0.5822985999984667;001;ASDB98;2019_Nov_28_1638;iat_vr;60.05064671484583;
4;SCHLECHT;negativ;q;1;7;27;1;q;1;0.9801818999985699;001;ASDB98;2019_Nov_28_1638;iat_vr;60.05064671484583;
4;SCHÄDLICH;negativ;q;1;8;28;3;q;1;0.45938630000091507;001;ASDB98;2019_Nov_28_1638;iat_vr;60.05064671484583;
4;BLUME;Natur;q;1;9;29;12;q;1;0.6315336000006937;001;ASDB98;2019_Nov_28_1638;iat_vr;60.05064671484583;
4;KLEIDER;Gemacht;p;1;10;30;17;p;1;0.8844833999974071;001;ASDB98;2019_Nov_28_1638;iat_vr;60.05064671484583;
4;GEBÄUDE;Gemacht;p;1;11;31;15;p;1;0.610384100000374;001;ASDB98;2019_Nov_28_1638;iat_vr;60.05064671484583;
4;EINWANDFREI;positiv;p;1;12;32;6;p;1;0.7443370000000868;001;ASDB98;2019_Nov_28_1638;iat_vr;60.05064671484583;
4;SCHWACH;negativ;q;1;13;33;4;q;1;0.680732299999363;001;ASDB98;2019_Nov_28_1638;iat_vr;60.05064671484583;
4;STEIN;Natur;q;1;14;34;14;q;1;0.8982639000023482;001;ASDB98;2019_Nov_28_1638;iat_vr;60.05064671484583;
4;GUT;positiv;p;1;15;35;9;p;1;0.7499489000001631;001;ASDB98;2019_Nov_28_1638;iat_vr;60.05064671484583;
4;TIER;Natur;q;1;16;36;13;q;1;1.1525204999998095;001;ASDB98;2019_Nov_28_1638;iat_vr;60.05064671484583;
4;LAMPE;Gemacht;p;1;17;37;19;p;1;0.7462343999977747;001;ASDB98;2019_Nov_28_1638;iat_vr;60.05064671484583;
4;SCHLIMM;negativ;q;1;18;38;0;q;1;1.1285695999977179;001;ASDB98;2019_Nov_28_1638;iat_vr;60.05064671484583;
4;NEGATIV;negativ;q;1;19;39;2;q;1;0.7811617000006663;001;ASDB98;2019_Nov_28_1638;iat_vr;60.05064671484583;
;;;;;;;;;;;001;ASDB98;2019_Nov_28_1638;iat_vr;60.05064671484583;
5;LAMPE;Gemacht;q;0;0;0;9;q;1;0.7038765999968746;001;ASDB98;2019_Nov_28_1638;iat_vr;60.05064671484583;
5;COMPUTER;Gemacht;q;0;1;1;8;q;1;0.7457967000009376;001;ASDB98;2019_Nov_28_1638;iat_vr;60.05064671484583;
5;GEBÄUDE;Gemacht;q;0;2;2;5;q;1;0.6463031999992381;001;ASDB98;2019_Nov_28_1638;iat_vr;60.05064671484583;
5;STADT;Gemacht;q;0;3;3;6;q;1;1.0134696000022814;001;ASDB98;2019_Nov_28_1638;iat_vr;60.05064671484583;
5;BAUM;Natur;p;0;4;4;0;p;1;0.8301052999995591;001;ASDB98;2019_Nov_28_1638;iat_vr;60.05064671484583;
5;KLEIDER;Gemacht;q;0;5;5;7;q;1;0.7959551999992982;001;ASDB98;2019_Nov_28_1638;iat_vr;60.05064671484583;
5;TIER;Natur;p;0;6;6;3;p;1;0.5348240999992413;001;ASDB98;2019_Nov_28_1638;iat_vr;60.05064671484583;
5;STEIN;Natur;p;0;7;7;4;q;0;0.8310729000004358;001;ASDB98;2019_Nov_28_1638;iat_vr;60.05064671484583;
5;WASSER;Natur;p;0;8;8;1;p;1;0.5637109999988752;001;ASDB98;2019_Nov_28_1638;iat_vr;60.05064671484583;
5;BLUME;Natur;p;0;9;9;2;p;1;0.4472851999998966;001;ASDB98;2019_Nov_28_1638;iat_vr;60.05064671484583;
5;COMPUTER;Gemacht;q;1;0;10;8;q;1;0.4879474000008486;001;ASDB98;2019_Nov_28_1638;iat_vr;60.05064671484583;
5;STEIN;Natur;p;1;1;11;4;p;1;0.6818691000007675;001;ASDB98;2019_Nov_28_1638;iat_vr;60.05064671484583;
5;BAUM;Natur;p;1;2;12;0;p;1;0.5656386999980896;001;ASDB98;2019_Nov_28_1638;iat_vr;60.05064671484583;
5;TIER;Natur;p;1;3;13;3;p;1;0.5353379999978642;001;ASDB98;2019_Nov_28_1638;iat_vr;60.05064671484583;
5;GEBÄUDE;Gemacht;q;1;4;14;5;q;1;0.6478042000017012;001;ASDB98;2019_Nov_28_1638;iat_vr;60.05064671484583;
5;LAMPE;Gemacht;q;1;5;15;9;p;0;0.5324670999980299;001;ASDB98;2019_Nov_28_1638;iat_vr;60.05064671484583;
5;KLEIDER;Gemacht;q;1;6;16;7;q;1;1.7471473999976297;001;ASDB98;2019_Nov_28_1638;iat_vr;60.05064671484583;
5;STADT;Gemacht;q;1;7;17;6;q;1;0.962710199997673;001;ASDB98;2019_Nov_28_1638;iat_vr;60.05064671484583;
5;WASSER;Natur;p;1;8;18;1;p;1;0.5983998000010615;001;ASDB98;2019_Nov_28_1638;iat_vr;60.05064671484583;
5;BLUME;Natur;p;1;9;19;2;p;1;0.43036559999745805;001;ASDB98;2019_Nov_28_1638;iat_vr;60.05064671484583;
;;;;;;;;;;;001;ASDB98;2019_Nov_28_1638;iat_vr;60.05064671484583;
6;KLEIDER;Gemacht;q;0;0;0;7;q;1;1.5666850000015984;001;ASDB98;2019_Nov_28_1638;iat_vr;60.05064671484583;
6;AUSGEZEICHNET;positiv;p;0;1;1;15;p;1;1.0607963999973435;001;ASDB98;2019_Nov_28_1638;iat_vr;60.05064671484583;
6;GUT;positiv;p;0;2;2;19;p;1;1.081958200000372;001;ASDB98;2019_Nov_28_1638;iat_vr;60.05064671484583;
6;LAMPE;Gemacht;q;0;3;3;9;q;1;1.4128853999973217;001;ASDB98;2019_Nov_28_1638;iat_vr;60.05064671484583;
6;TIER;Natur;p;0;4;4;3;p;1;0.8471821999992244;001;ASDB98;2019_Nov_28_1638;iat_vr;60.05064671484583;
6;SCHLECHT;negativ;q;0;5;5;11;q;1;1.4949296999984654;001;ASDB98;2019_Nov_28_1638;iat_vr;60.05064671484583;
6;SCHWACH;negativ;q;0;6;6;14;q;1;0.6114507999991474;001;ASDB98;2019_Nov_28_1638;iat_vr;60.05064671484583;
6;SCHLIMM;negativ;q;0;7;7;10;q;1;0.7467389999983425;001;ASDB98;2019_Nov_28_1638;iat_vr;60.05064671484583;
6;EINWANDFREI;positiv;p;0;8;8;16;p;1;0.7446821000012278;001;ASDB98;2019_Nov_28_1638;iat_vr;60.05064671484583;
6;SCHÄDLICH;negativ;q;0;9;9;13;q;1;0.7857580000018061;001;ASDB98;2019_Nov_28_1638;iat_vr;60.05064671484583;
6;STEIN;Natur;p;0;10;10;4;q;0;1.0813659000014013;001;ASDB98;2019_Nov_28_1638;iat_vr;60.05064671484583;
6;BAUM;Natur;p;0;11;11;0;q;0;0.982340500002465;001;ASDB98;2019_Nov_28_1638;iat_vr;60.05064671484583;
6;POSITIV;positiv;p;0;12;12;18;p;1;0.6641974000012851;001;ASDB98;2019_Nov_28_1638;iat_vr;60.05064671484583;
6;HERVORRAGEND;positiv;p;0;13;13;17;p;1;0.8281275999979698;001;ASDB98;2019_Nov_28_1638;iat_vr;60.05064671484583;
6;STADT;Gemacht;q;0;14;14;6;p;0;0.8636709999991581;001;ASDB98;2019_Nov_28_1638;iat_vr;60.05064671484583;
6;GEBÄUDE;Gemacht;q;0;15;15;5;q;1;0.947115599999961;001;ASDB98;2019_Nov_28_1638;iat_vr;60.05064671484583;
6;BLUME;Natur;p;0;16;16;2;p;1;0.6627114000002621;001;ASDB98;2019_Nov_28_1638;iat_vr;60.05064671484583;
6;COMPUTER;Gemacht;q;0;17;17;8;q;1;0.6978385999973398;001;ASDB98;2019_Nov_28_1638;iat_vr;60.05064671484583;
6;NEGATIV;negativ;q;0;18;18;12;q;1;0.6853133000004163;001;ASDB98;2019_Nov_28_1638;iat_vr;60.05064671484583;
6;WASSER;Natur;p;0;19;19;1;q;0;0.8988965999997163;001;ASDB98;2019_Nov_28_1638;iat_vr;60.05064671484583;
;;;;;;;;;;;001;ASDB98;2019_Nov_28_1638;iat_vr;60.05064671484583;
7;GUT;positiv;p;0;0;0;19;p;1;2.3087640999983705;001;ASDB98;2019_Nov_28_1638;iat_vr;60.05064671484583;
7;NEGATIV;negativ;q;0;1;1;12;q;1;0.7623700999974972;001;ASDB98;2019_Nov_28_1638;iat_vr;60.05064671484583;
7;AUSGEZEICHNET;positiv;p;0;2;2;15;p;1;0.8767592999975022;001;ASDB98;2019_Nov_28_1638;iat_vr;60.05064671484583;
7;HERVORRAGEND;positiv;p;0;3;3;17;p;1;0.6601184999999532;001;ASDB98;2019_Nov_28_1638;iat_vr;60.05064671484583;
7;SCHLECHT;negativ;q;0;4;4;11;q;1;0.5124481000020751;001;ASDB98;2019_Nov_28_1638;iat_vr;60.05064671484583;
7;EINWANDFREI;positiv;p;0;5;5;16;p;1;0.8635940999993181;001;ASDB98;2019_Nov_28_1638;iat_vr;60.05064671484583;
7;BAUM;Natur;p;0;6;6;0;q;0;1.0320299999984854;001;ASDB98;2019_Nov_28_1638;iat_vr;60.05064671484583;
7;STADT;Gemacht;q;0;7;7;6;q;1;1.8313908999989508;001;ASDB98;2019_Nov_28_1638;iat_vr;60.05064671484583;
7;WASSER;Natur;p;0;8;8;1;p;1;0.6814860000013141;001;ASDB98;2019_Nov_28_1638;iat_vr;60.05064671484583;
7;POSITIV;positiv;p;0;9;9;18;p;1;0.9022780000013881;001;ASDB98;2019_Nov_28_1638;iat_vr;60.05064671484583;
7;BLUME;Natur;p;0;10;10;2;p;1;0.8183152000019618;001;ASDB98;2019_Nov_28_1638;iat_vr;60.05064671484583;
7;KLEIDER;Gemacht;q;0;11;11;7;q;1;0.6647808000016084;001;ASDB98;2019_Nov_28_1638;iat_vr;60.05064671484583;
7;SCHLIMM;negativ;q;0;12;12;10;q;1;0.9477293999989342;001;ASDB98;2019_Nov_28_1638;iat_vr;60.05064671484583;
7;SCHÄDLICH;negativ;q;0;13;13;13;q;1;0.694152000000031;001;ASDB98;2019_Nov_28_1638;iat_vr;60.05064671484583;
7;STEIN;Natur;p;0;14;14;4;p;1;1.6964532999991206;001;ASDB98;2019_Nov_28_1638;iat_vr;60.05064671484583;
7;GEBÄUDE;Gemacht;q;0;15;15;5;q;1;0.7148512999992818;001;ASDB98;2019_Nov_28_1638;iat_vr;60.05064671484583;
7;COMPUTER;Gemacht;q;0;16;16;8;q;1;0.8143213000003016;001;ASDB98;2019_Nov_28_1638;iat_vr;60.05064671484583;
7;SCHWACH;negativ;q;0;17;17;14;q;1;0.7465678000007756;001;ASDB98;2019_Nov_28_1638;iat_vr;60.05064671484583;
7;LAMPE;Gemacht;q;0;18;18;9;q;1;0.9488161999979638;001;ASDB98;2019_Nov_28_1638;iat_vr;60.05064671484583;
7;TIER;Natur;p;0;19;19;3;p;1;0.6655614999981481;001;ASDB98;2019_Nov_28_1638;iat_vr;60.05064671484583;
7;NEGATIV;negativ;q;1;0;20;12;q;1;0.814545299999736;001;ASDB98;2019_Nov_28_1638;iat_vr;60.05064671484583;
7;SCHLIMM;negativ;q;1;1;21;10;q;1;0.780543699998816;001;ASDB98;2019_Nov_28_1638;iat_vr;60.05064671484583;
7;GUT;positiv;p;1;2;22;19;p;1;0.6796630999997433;001;ASDB98;2019_Nov_28_1638;iat_vr;60.05064671484583;
7;LAMPE;Gemacht;q;1;3;23;9;p;0;2.0834603999974206;001;ASDB98;2019_Nov_28_1638;iat_vr;60.05064671484583;
7;KLEIDER;Gemacht;q;1;4;24;7;q;1;0.9795446999996784;001;ASDB98;2019_Nov_28_1638;iat_vr;60.05064671484583;
7;STEIN;Natur;p;1;5;25;4;p;1;0.6803341999984696;001;ASDB98;2019_Nov_28_1638;iat_vr;60.05064671484583;
7;BAUM;Natur;p;1;6;26;0;p;1;0.5154443999999785;001;ASDB98;2019_Nov_28_1638;iat_vr;60.05064671484583;
7;SCHÄDLICH;negativ;q;1;7;27;13;q;1;0.6130013000001782;001;ASDB98;2019_Nov_28_1638;iat_vr;60.05064671484583;
7;POSITIV;positiv;p;1;8;28;18;p;1;0.6978412000025855;001;ASDB98;2019_Nov_28_1638;iat_vr;60.05064671484583;
7;HERVORRAGEND;positiv;p;1;9;29;17;p;1;0.7748229000026186;001;ASDB98;2019_Nov_28_1638;iat_vr;60.05064671484583;
7;GEBÄUDE;Gemacht;q;1;10;30;5;q;1;1.1861898000024667;001;ASDB98;2019_Nov_28_1638;iat_vr;60.05064671484583;
7;BLUME;Natur;p;1;11;31;2;p;1;0.647711800000252;001;ASDB98;2019_Nov_28_1638;iat_vr;60.05064671484583;
7;WASSER;Natur;p;1;12;32;1;q;0;0.6689161000031163;001;ASDB98;2019_Nov_28_1638;iat_vr;60.05064671484583;
7;STADT;Gemacht;q;1;13;33;6;q;1;1.1820192000013776;001;ASDB98;2019_Nov_28_1638;iat_vr;60.05064671484583;
7;COMPUTER;Gemacht;q;1;14;34;8;q;1;0.4951608999981545;001;ASDB98;2019_Nov_28_1638;iat_vr;60.05064671484583;
7;TIER;Natur;p;1;15;35;3;p;1;0.5153986000004807;001;ASDB98;2019_Nov_28_1638;iat_vr;60.05064671484583;
7;EINWANDFREI;positiv;p;1;16;36;16;p;1;1.1442944000009447;001;ASDB98;2019_Nov_28_1638;iat_vr;60.05064671484583;
7;AUSGEZEICHNET;positiv;p;1;17;37;15;p;1;0.6076013999991119;001;ASDB98;2019_Nov_28_1638;iat_vr;60.05064671484583;
7;SCHWACH;negativ;q;1;18;38;14;q;1;0.4692179000012402;001;ASDB98;2019_Nov_28_1638;iat_vr;60.05064671484583;
7;SCHLECHT;negativ;q;1;19;39;11;q;1;0.5140768999990541;001;ASDB98;2019_Nov_28_1638;iat_vr;60.05064671484583;
;;;;;;;;;;;001;ASDB98;2019_Nov_28_1638;iat_vr;60.05064671484583;
