Block;Word;Category;CorrResp;trials.thisRepN;trials.thisTrialN;trials.thisN;trials.thisIndex;key_resp_2.keys;key_resp_2.corr;key_resp_2.rt;session;participant;date;expName;frameRate;
1;KLEIDER;Gemacht;p;0;0;0;7;p;1;1.248820999997406;002;ASDG98;2019_Nov_28_1622;iat_vr;60.33666653165737;
1;BAUM;Natur;q;0;1;1;0;q;1;0.7387272000014491;002;ASDG98;2019_Nov_28_1622;iat_vr;60.33666653165737;
1;COMPUTER;Gemacht;p;0;2;2;8;p;1;0.5836209000008239;002;ASDG98;2019_Nov_28_1622;iat_vr;60.33666653165737;
1;STEIN;Natur;q;0;3;3;4;q;1;0.6753377999993972;002;ASDG98;2019_Nov_28_1622;iat_vr;60.33666653165737;
1;TIER;Natur;q;0;4;4;3;q;1;0.6821486000008008;002;ASDG98;2019_Nov_28_1622;iat_vr;60.33666653165737;
1;LAMPE;Gemacht;p;0;5;5;9;p;1;0.7492602999991504;002;ASDG98;2019_Nov_28_1622;iat_vr;60.33666653165737;
1;GEBÄUDE;Gemacht;p;0;6;6;5;p;1;0.6573422999972536;002;ASDG98;2019_Nov_28_1622;iat_vr;60.33666653165737;
1;WASSER;Natur;q;0;7;7;1;q;1;0.677699500000017;002;ASDG98;2019_Nov_28_1622;iat_vr;60.33666653165737;
1;BLUME;Natur;q;0;8;8;2;q;1;0.8979347000022244;002;ASDG98;2019_Nov_28_1622;iat_vr;60.33666653165737;
1;STADT;Gemacht;p;0;9;9;6;p;1;0.6796413999982178;002;ASDG98;2019_Nov_28_1622;iat_vr;60.33666653165737;
1;STEIN;Natur;q;1;0;10;4;q;1;0.5836860999988858;002;ASDG98;2019_Nov_28_1622;iat_vr;60.33666653165737;
1;BAUM;Natur;q;1;1;11;0;q;1;0.7152967000001809;002;ASDG98;2019_Nov_28_1622;iat_vr;60.33666653165737;
1;GEBÄUDE;Gemacht;p;1;2;12;5;p;1;0.6131667999979982;002;ASDG98;2019_Nov_28_1622;iat_vr;60.33666653165737;
1;TIER;Natur;q;1;3;13;3;q;1;0.68218060000072;002;ASDG98;2019_Nov_28_1622;iat_vr;60.33666653165737;
1;LAMPE;Gemacht;p;1;4;14;9;p;1;1.1645639999987907;002;ASDG98;2019_Nov_28_1622;iat_vr;60.33666653165737;
1;STADT;Gemacht;p;1;5;15;6;p;1;0.832017699998687;002;ASDG98;2019_Nov_28_1622;iat_vr;60.33666653165737;
1;BLUME;Natur;q;1;6;16;2;q;1;0.5616244999982882;002;ASDG98;2019_Nov_28_1622;iat_vr;60.33666653165737;
1;WASSER;Natur;q;1;7;17;1;q;1;0.6656022999995912;002;ASDG98;2019_Nov_28_1622;iat_vr;60.33666653165737;
1;COMPUTER;Gemacht;p;1;8;18;8;p;1;0.8106016000019736;002;ASDG98;2019_Nov_28_1622;iat_vr;60.33666653165737;
1;KLEIDER;Gemacht;p;1;9;19;7;p;1;0.6304347999976017;002;ASDG98;2019_Nov_28_1622;iat_vr;60.33666653165737;
;;;;;;;;;;;002;ASDG98;2019_Nov_28_1622;iat_vr;60.33666653165737;
2;POSITIV;positiv;p;0;0;0;8;p;1;0.7233578999985184;002;ASDG98;2019_Nov_28_1622;iat_vr;60.33666653165737;
2;SCHLECHT;negativ;q;0;1;1;1;q;1;0.5759945999998308;002;ASDG98;2019_Nov_28_1622;iat_vr;60.33666653165737;
2;NEGATIV;negativ;q;0;2;2;2;q;1;0.5447013999983028;002;ASDG98;2019_Nov_28_1622;iat_vr;60.33666653165737;
2;SCHLIMM;negativ;q;0;3;3;0;q;1;0.6805682000012894;002;ASDG98;2019_Nov_28_1622;iat_vr;60.33666653165737;
2;GUT;positiv;p;0;4;4;9;p;1;0.5987748000006832;002;ASDG98;2019_Nov_28_1622;iat_vr;60.33666653165737;
2;EINWANDFREI;positiv;p;0;5;5;6;p;1;1.0420397000016237;002;ASDG98;2019_Nov_28_1622;iat_vr;60.33666653165737;
2;AUSGEZEICHNET;positiv;p;0;6;6;5;p;1;0.7408806999992521;002;ASDG98;2019_Nov_28_1622;iat_vr;60.33666653165737;
2;HERVORRAGEND;positiv;p;0;7;7;7;p;1;0.6610172000000603;002;ASDG98;2019_Nov_28_1622;iat_vr;60.33666653165737;
2;SCHÄDLICH;negativ;q;0;8;8;3;q;1;0.7619076999981189;002;ASDG98;2019_Nov_28_1622;iat_vr;60.33666653165737;
2;SCHWACH;negativ;q;0;9;9;4;q;1;0.6640747999990708;002;ASDG98;2019_Nov_28_1622;iat_vr;60.33666653165737;
2;SCHÄDLICH;negativ;q;1;0;10;3;q;1;0.6609515999989526;002;ASDG98;2019_Nov_28_1622;iat_vr;60.33666653165737;
2;GUT;positiv;p;1;1;11;9;p;1;0.6322091000001819;002;ASDG98;2019_Nov_28_1622;iat_vr;60.33666653165737;
2;POSITIV;positiv;p;1;2;12;8;p;1;0.6785936000014772;002;ASDG98;2019_Nov_28_1622;iat_vr;60.33666653165737;
2;SCHWACH;negativ;q;1;3;13;4;q;1;0.8756350000003295;002;ASDG98;2019_Nov_28_1622;iat_vr;60.33666653165737;
2;HERVORRAGEND;positiv;p;1;4;14;7;p;1;0.7122345999996469;002;ASDG98;2019_Nov_28_1622;iat_vr;60.33666653165737;
2;AUSGEZEICHNET;positiv;p;1;5;15;5;p;1;0.8931402999987768;002;ASDG98;2019_Nov_28_1622;iat_vr;60.33666653165737;
2;NEGATIV;negativ;q;1;6;16;2;q;1;1.011812500000815;002;ASDG98;2019_Nov_28_1622;iat_vr;60.33666653165737;
2;SCHLIMM;negativ;q;1;7;17;0;p;0;0.9992305000014312;002;ASDG98;2019_Nov_28_1622;iat_vr;60.33666653165737;
2;EINWANDFREI;positiv;p;1;8;18;6;p;1;1.211235900002066;002;ASDG98;2019_Nov_28_1622;iat_vr;60.33666653165737;
2;SCHLECHT;negativ;q;1;9;19;1;q;1;0.6157399000003352;002;ASDG98;2019_Nov_28_1622;iat_vr;60.33666653165737;
;;;;;;;;;;;002;ASDG98;2019_Nov_28_1622;iat_vr;60.33666653165737;
3;EINWANDFREI;positiv;p;0;0;0;6;p;1;1.499376100000518;002;ASDG98;2019_Nov_28_1622;iat_vr;60.33666653165737;
3;SCHLIMM;negativ;q;0;1;1;0;q;1;0.9978596999972069;002;ASDG98;2019_Nov_28_1622;iat_vr;60.33666653165737;
3;COMPUTER;Gemacht;p;0;2;2;18;p;1;0.8604426999991119;002;ASDG98;2019_Nov_28_1622;iat_vr;60.33666653165737;
3;GUT;positiv;p;0;3;3;9;p;1;1.3008148000008077;002;ASDG98;2019_Nov_28_1622;iat_vr;60.33666653165737;
3;WASSER;Natur;q;0;4;4;11;q;1;0.832006900000124;002;ASDG98;2019_Nov_28_1622;iat_vr;60.33666653165737;
3;SCHLECHT;negativ;q;0;5;5;1;q;1;1.2352247999988322;002;ASDG98;2019_Nov_28_1622;iat_vr;60.33666653165737;
3;POSITIV;positiv;p;0;6;6;8;p;1;0.765221499998006;002;ASDG98;2019_Nov_28_1622;iat_vr;60.33666653165737;
3;GEBÄUDE;Gemacht;p;0;7;7;15;p;1;0.9518081999995047;002;ASDG98;2019_Nov_28_1622;iat_vr;60.33666653165737;
3;KLEIDER;Gemacht;p;0;8;8;17;p;1;0.6477022999970359;002;ASDG98;2019_Nov_28_1622;iat_vr;60.33666653165737;
3;BAUM;Natur;q;0;9;9;10;q;1;0.6655033000024559;002;ASDG98;2019_Nov_28_1622;iat_vr;60.33666653165737;
3;STEIN;Natur;q;0;10;10;14;q;1;0.648858200001996;002;ASDG98;2019_Nov_28_1622;iat_vr;60.33666653165737;
3;SCHWACH;negativ;q;0;11;11;4;q;1;0.8647445999995398;002;ASDG98;2019_Nov_28_1622;iat_vr;60.33666653165737;
3;STADT;Gemacht;p;0;12;12;16;p;1;0.9313777999996091;002;ASDG98;2019_Nov_28_1622;iat_vr;60.33666653165737;
3;LAMPE;Gemacht;p;0;13;13;19;p;1;0.746559499999421;002;ASDG98;2019_Nov_28_1622;iat_vr;60.33666653165737;
3;HERVORRAGEND;positiv;p;0;14;14;7;p;1;1.963395800001308;002;ASDG98;2019_Nov_28_1622;iat_vr;60.33666653165737;
3;BLUME;Natur;q;0;15;15;12;q;1;0.9355095000028086;002;ASDG98;2019_Nov_28_1622;iat_vr;60.33666653165737;
3;SCHÄDLICH;negativ;q;0;16;16;3;q;1;1.0029854999993404;002;ASDG98;2019_Nov_28_1622;iat_vr;60.33666653165737;
3;TIER;Natur;q;0;17;17;13;q;1;0.9811240000017278;002;ASDG98;2019_Nov_28_1622;iat_vr;60.33666653165737;
3;NEGATIV;negativ;q;0;18;18;2;q;1;1.1588086999981897;002;ASDG98;2019_Nov_28_1622;iat_vr;60.33666653165737;
3;AUSGEZEICHNET;positiv;p;0;19;19;5;p;1;0.6930567999988853;002;ASDG98;2019_Nov_28_1622;iat_vr;60.33666653165737;
;;;;;;;;;;;002;ASDG98;2019_Nov_28_1622;iat_vr;60.33666653165737;
4;EINWANDFREI;positiv;p;0;0;0;6;p;1;2.167848799999774;002;ASDG98;2019_Nov_28_1622;iat_vr;60.33666653165737;
4;BLUME;Natur;q;0;1;1;12;q;1;1.049020999998902;002;ASDG98;2019_Nov_28_1622;iat_vr;60.33666653165737;
4;LAMPE;Gemacht;p;0;2;2;19;p;1;0.7486927999998443;002;ASDG98;2019_Nov_28_1622;iat_vr;60.33666653165737;
4;BAUM;Natur;q;0;3;3;10;q;1;0.6989610999989964;002;ASDG98;2019_Nov_28_1622;iat_vr;60.33666653165737;
4;WASSER;Natur;q;0;4;4;11;q;1;0.6316980000010517;002;ASDG98;2019_Nov_28_1622;iat_vr;60.33666653165737;
4;SCHLECHT;negativ;q;0;5;5;1;q;1;0.8024416999978712;002;ASDG98;2019_Nov_28_1622;iat_vr;60.33666653165737;
4;COMPUTER;Gemacht;p;0;6;6;18;p;1;0.8277878999979293;002;ASDG98;2019_Nov_28_1622;iat_vr;60.33666653165737;
4;GUT;positiv;p;0;7;7;9;p;1;0.5992832999982056;002;ASDG98;2019_Nov_28_1622;iat_vr;60.33666653165737;
4;SCHÄDLICH;negativ;q;0;8;8;3;q;1;0.7809110999987752;002;ASDG98;2019_Nov_28_1622;iat_vr;60.33666653165737;
4;NEGATIV;negativ;q;0;9;9;2;q;1;0.5795504999987315;002;ASDG98;2019_Nov_28_1622;iat_vr;60.33666653165737;
4;SCHLIMM;negativ;q;0;10;10;0;q;1;1.0636741000016627;002;ASDG98;2019_Nov_28_1622;iat_vr;60.33666653165737;
4;TIER;Natur;q;0;11;11;13;p;0;0.8140346000000136;002;ASDG98;2019_Nov_28_1622;iat_vr;60.33666653165737;
4;STADT;Gemacht;p;0;12;12;16;p;1;1.4986779000028037;002;ASDG98;2019_Nov_28_1622;iat_vr;60.33666653165737;
4;STEIN;Natur;q;0;13;13;14;q;1;0.6812748999982432;002;ASDG98;2019_Nov_28_1622;iat_vr;60.33666653165737;
4;AUSGEZEICHNET;positiv;p;0;14;14;5;p;1;0.9762547999998787;002;ASDG98;2019_Nov_28_1622;iat_vr;60.33666653165737;
4;KLEIDER;Gemacht;p;0;15;15;17;p;1;0.9652056000013545;002;ASDG98;2019_Nov_28_1622;iat_vr;60.33666653165737;
4;GEBÄUDE;Gemacht;p;0;16;16;15;p;1;1.4814197999985481;002;ASDG98;2019_Nov_28_1622;iat_vr;60.33666653165737;
4;SCHWACH;negativ;q;0;17;17;4;q;1;0.9298176999982388;002;ASDG98;2019_Nov_28_1622;iat_vr;60.33666653165737;
4;HERVORRAGEND;positiv;p;0;18;18;7;p;1;0.6634861000020464;002;ASDG98;2019_Nov_28_1622;iat_vr;60.33666653165737;
4;POSITIV;positiv;p;0;19;19;8;p;1;0.7683782999993127;002;ASDG98;2019_Nov_28_1622;iat_vr;60.33666653165737;
4;LAMPE;Gemacht;p;1;0;20;19;p;1;1.4148230999999214;002;ASDG98;2019_Nov_28_1622;iat_vr;60.33666653165737;
4;SCHLIMM;negativ;q;1;1;21;0;q;1;1.0479400000003807;002;ASDG98;2019_Nov_28_1622;iat_vr;60.33666653165737;
4;GEBÄUDE;Gemacht;p;1;2;22;15;p;1;1.0307767999984208;002;ASDG98;2019_Nov_28_1622;iat_vr;60.33666653165737;
4;COMPUTER;Gemacht;p;1;3;23;18;p;1;0.5968634999990172;002;ASDG98;2019_Nov_28_1622;iat_vr;60.33666653165737;
4;BLUME;Natur;q;1;4;24;12;q;1;0.7487132999995083;002;ASDG98;2019_Nov_28_1622;iat_vr;60.33666653165737;
4;EINWANDFREI;positiv;p;1;5;25;6;p;1;0.951563000002352;002;ASDG98;2019_Nov_28_1622;iat_vr;60.33666653165737;
4;SCHWACH;negativ;q;1;6;26;4;q;1;0.785520199999155;002;ASDG98;2019_Nov_28_1622;iat_vr;60.33666653165737;
4;SCHÄDLICH;negativ;q;1;7;27;3;q;1;1.5113395000007586;002;ASDG98;2019_Nov_28_1622;iat_vr;60.33666653165737;
4;WASSER;Natur;q;1;8;28;11;q;1;1.4645649999984016;002;ASDG98;2019_Nov_28_1622;iat_vr;60.33666653165737;
4;KLEIDER;Gemacht;p;1;9;29;17;p;1;0.6791368000012881;002;ASDG98;2019_Nov_28_1622;iat_vr;60.33666653165737;
4;AUSGEZEICHNET;positiv;p;1;10;30;5;p;1;1.2447526000032667;002;ASDG98;2019_Nov_28_1622;iat_vr;60.33666653165737;
4;GUT;positiv;p;1;11;31;9;p;1;0.4857107999996515;002;ASDG98;2019_Nov_28_1622;iat_vr;60.33666653165737;
4;BAUM;Natur;q;1;12;32;10;q;1;0.6659065000021656;002;ASDG98;2019_Nov_28_1622;iat_vr;60.33666653165737;
4;STADT;Gemacht;p;1;13;33;16;p;1;0.597856899999897;002;ASDG98;2019_Nov_28_1622;iat_vr;60.33666653165737;
4;HERVORRAGEND;positiv;p;1;14;34;7;p;1;0.9518896000008681;002;ASDG98;2019_Nov_28_1622;iat_vr;60.33666653165737;
4;POSITIV;positiv;p;1;15;35;8;p;1;0.5606389000022318;002;ASDG98;2019_Nov_28_1622;iat_vr;60.33666653165737;
4;TIER;Natur;q;1;16;36;13;q;1;0.7818866000015987;002;ASDG98;2019_Nov_28_1622;iat_vr;60.33666653165737;
4;SCHLECHT;negativ;q;1;17;37;1;q;1;0.7309324000016204;002;ASDG98;2019_Nov_28_1622;iat_vr;60.33666653165737;
4;STEIN;Natur;q;1;18;38;14;q;1;1.0989640000007057;002;ASDG98;2019_Nov_28_1622;iat_vr;60.33666653165737;
4;NEGATIV;negativ;q;1;19;39;2;q;1;0.7646128999986104;002;ASDG98;2019_Nov_28_1622;iat_vr;60.33666653165737;
;;;;;;;;;;;002;ASDG98;2019_Nov_28_1622;iat_vr;60.33666653165737;
5;GEBÄUDE;Gemacht;q;0;0;0;5;q;1;0.99668820000079;002;ASDG98;2019_Nov_28_1622;iat_vr;60.33666653165737;
5;KLEIDER;Gemacht;q;0;1;1;7;q;1;0.6136195999970369;002;ASDG98;2019_Nov_28_1622;iat_vr;60.33666653165737;
5;STADT;Gemacht;q;0;2;2;6;q;1;0.715120199998637;002;ASDG98;2019_Nov_28_1622;iat_vr;60.33666653165737;
5;BAUM;Natur;p;0;3;3;0;p;1;0.6148449000029359;002;ASDG98;2019_Nov_28_1622;iat_vr;60.33666653165737;
5;STEIN;Natur;p;0;4;4;4;p;1;0.6137595000000147;002;ASDG98;2019_Nov_28_1622;iat_vr;60.33666653165737;
5;COMPUTER;Gemacht;q;0;5;5;8;q;1;0.6329846999979054;002;ASDG98;2019_Nov_28_1622;iat_vr;60.33666653165737;
5;LAMPE;Gemacht;q;0;6;6;9;q;1;0.7986644999982673;002;ASDG98;2019_Nov_28_1622;iat_vr;60.33666653165737;
5;BLUME;Natur;p;0;7;7;2;p;1;0.6985886999973445;002;ASDG98;2019_Nov_28_1622;iat_vr;60.33666653165737;
5;WASSER;Natur;p;0;8;8;1;p;1;0.6127220000016678;002;ASDG98;2019_Nov_28_1622;iat_vr;60.33666653165737;
5;TIER;Natur;p;0;9;9;3;p;1;0.5995226000013645;002;ASDG98;2019_Nov_28_1622;iat_vr;60.33666653165737;
5;TIER;Natur;p;1;0;10;3;p;1;0.6341455000001588;002;ASDG98;2019_Nov_28_1622;iat_vr;60.33666653165737;
5;COMPUTER;Gemacht;q;1;1;11;8;q;1;0.8622894000000088;002;ASDG98;2019_Nov_28_1622;iat_vr;60.33666653165737;
5;STADT;Gemacht;q;1;2;12;6;q;1;1.1985503999967477;002;ASDG98;2019_Nov_28_1622;iat_vr;60.33666653165737;
5;GEBÄUDE;Gemacht;q;1;3;13;5;q;1;0.6137787999978173;002;ASDG98;2019_Nov_28_1622;iat_vr;60.33666653165737;
5;KLEIDER;Gemacht;q;1;4;14;7;q;1;0.6295061999990139;002;ASDG98;2019_Nov_28_1622;iat_vr;60.33666653165737;
5;STEIN;Natur;p;1;5;15;4;p;1;0.6656441000013729;002;ASDG98;2019_Nov_28_1622;iat_vr;60.33666653165737;
5;BAUM;Natur;p;1;6;16;0;p;1;0.5966406000006828;002;ASDG98;2019_Nov_28_1622;iat_vr;60.33666653165737;
5;WASSER;Natur;p;1;7;17;1;p;1;0.6803097999982128;002;ASDG98;2019_Nov_28_1622;iat_vr;60.33666653165737;
5;BLUME;Natur;p;1;8;18;2;p;1;0.7294335999977193;002;ASDG98;2019_Nov_28_1622;iat_vr;60.33666653165737;
5;LAMPE;Gemacht;q;1;9;19;9;q;1;0.6489400999998907;002;ASDG98;2019_Nov_28_1622;iat_vr;60.33666653165737;
;;;;;;;;;;;002;ASDG98;2019_Nov_28_1622;iat_vr;60.33666653165737;
6;AUSGEZEICHNET;positiv;p;0;0;0;15;p;1;1.3833587000008265;002;ASDG98;2019_Nov_28_1622;iat_vr;60.33666653165737;
6;COMPUTER;Gemacht;q;0;1;1;8;q;1;1.2484020999982022;002;ASDG98;2019_Nov_28_1622;iat_vr;60.33666653165737;
6;SCHLECHT;negativ;q;0;2;2;11;q;1;1.4119813999968756;002;ASDG98;2019_Nov_28_1622;iat_vr;60.33666653165737;
6;EINWANDFREI;positiv;p;0;3;3;16;p;1;1.1123265999995056;002;ASDG98;2019_Nov_28_1622;iat_vr;60.33666653165737;
6;SCHÄDLICH;negativ;q;0;4;4;13;q;1;1.129992800000764;002;ASDG98;2019_Nov_28_1622;iat_vr;60.33666653165737;
6;GEBÄUDE;Gemacht;q;0;5;5;5;q;1;1.014645200000814;002;ASDG98;2019_Nov_28_1622;iat_vr;60.33666653165737;
6;POSITIV;positiv;p;0;6;6;18;p;1;0.9474976999990758;002;ASDG98;2019_Nov_28_1622;iat_vr;60.33666653165737;
6;TIER;Natur;p;0;7;7;3;p;1;1.0324297000006482;002;ASDG98;2019_Nov_28_1622;iat_vr;60.33666653165737;
6;SCHWACH;negativ;q;0;8;8;14;q;1;1.2642821999979788;002;ASDG98;2019_Nov_28_1622;iat_vr;60.33666653165737;
6;HERVORRAGEND;positiv;p;0;9;9;17;p;1;1.0117780999971728;002;ASDG98;2019_Nov_28_1622;iat_vr;60.33666653165737;
6;WASSER;Natur;p;0;10;10;1;p;1;0.9023787000005541;002;ASDG98;2019_Nov_28_1622;iat_vr;60.33666653165737;
6;STADT;Gemacht;q;0;11;11;6;q;1;1.1309701999998651;002;ASDG98;2019_Nov_28_1622;iat_vr;60.33666653165737;
6;BAUM;Natur;p;0;12;12;0;p;1;0.9300572000029206;002;ASDG98;2019_Nov_28_1622;iat_vr;60.33666653165737;
6;NEGATIV;negativ;q;0;13;13;12;q;1;1.180264899998292;002;ASDG98;2019_Nov_28_1622;iat_vr;60.33666653165737;
6;KLEIDER;Gemacht;q;0;14;14;7;q;1;0.7149500000014086;002;ASDG98;2019_Nov_28_1622;iat_vr;60.33666653165737;
6;SCHLIMM;negativ;q;0;15;15;10;q;1;0.8463899999987916;002;ASDG98;2019_Nov_28_1622;iat_vr;60.33666653165737;
6;BLUME;Natur;p;0;16;16;2;p;1;0.8792566999982228;002;ASDG98;2019_Nov_28_1622;iat_vr;60.33666653165737;
6;STEIN;Natur;p;0;17;17;4;p;1;0.7974912999998196;002;ASDG98;2019_Nov_28_1622;iat_vr;60.33666653165737;
6;LAMPE;Gemacht;q;0;18;18;9;p;0;0.685556299999007;002;ASDG98;2019_Nov_28_1622;iat_vr;60.33666653165737;
6;GUT;positiv;p;0;19;19;19;p;1;4.518708399999014;002;ASDG98;2019_Nov_28_1622;iat_vr;60.33666653165737;
;;;;;;;;;;;002;ASDG98;2019_Nov_28_1622;iat_vr;60.33666653165737;
7;EINWANDFREI;positiv;p;0;0;0;16;p;1;1.9022708000011335;002;ASDG98;2019_Nov_28_1622;iat_vr;60.33666653165737;
7;GUT;positiv;p;0;1;1;19;p;1;0.5325243000006594;002;ASDG98;2019_Nov_28_1622;iat_vr;60.33666653165737;
7;SCHWACH;negativ;q;0;2;2;14;q;1;0.7140314999996917;002;ASDG98;2019_Nov_28_1622;iat_vr;60.33666653165737;
7;SCHLECHT;negativ;q;0;3;3;11;q;1;0.5299395000001823;002;ASDG98;2019_Nov_28_1622;iat_vr;60.33666653165737;
7;TIER;Natur;p;0;4;4;3;p;1;0.6810714000021107;002;ASDG98;2019_Nov_28_1622;iat_vr;60.33666653165737;
7;SCHLIMM;negativ;q;0;5;5;10;q;1;1.2469332000000577;002;ASDG98;2019_Nov_28_1622;iat_vr;60.33666653165737;
7;KLEIDER;Gemacht;q;0;6;6;7;q;1;0.9303617999976268;002;ASDG98;2019_Nov_28_1622;iat_vr;60.33666653165737;
7;NEGATIV;negativ;q;0;7;7;12;q;1;0.9308328000006441;002;ASDG98;2019_Nov_28_1622;iat_vr;60.33666653165737;
7;BLUME;Natur;p;0;8;8;2;q;0;0.7650174000009429;002;ASDG98;2019_Nov_28_1622;iat_vr;60.33666653165737;
7;HERVORRAGEND;positiv;p;0;9;9;17;p;1;1.0809517999987293;002;ASDG98;2019_Nov_28_1622;iat_vr;60.33666653165737;
7;AUSGEZEICHNET;positiv;p;0;10;10;15;p;1;0.5275527999983751;002;ASDG98;2019_Nov_28_1622;iat_vr;60.33666653165737;
7;STADT;Gemacht;q;0;11;11;6;q;1;0.765845600002649;002;ASDG98;2019_Nov_28_1622;iat_vr;60.33666653165737;
7;SCHÄDLICH;negativ;q;0;12;12;13;q;1;2.177881299998262;002;ASDG98;2019_Nov_28_1622;iat_vr;60.33666653165737;
7;WASSER;Natur;p;0;13;13;1;p;1;1.0639351999998325;002;ASDG98;2019_Nov_28_1622;iat_vr;60.33666653165737;
7;COMPUTER;Gemacht;q;0;14;14;8;q;1;0.6465004999990924;002;ASDG98;2019_Nov_28_1622;iat_vr;60.33666653165737;
7;STEIN;Natur;p;0;15;15;4;p;1;0.7616753000002063;002;ASDG98;2019_Nov_28_1622;iat_vr;60.33666653165737;
7;GEBÄUDE;Gemacht;q;0;16;16;5;q;1;0.6524809000002278;002;ASDG98;2019_Nov_28_1622;iat_vr;60.33666653165737;
7;LAMPE;Gemacht;q;0;17;17;9;q;1;0.9341925000007905;002;ASDG98;2019_Nov_28_1622;iat_vr;60.33666653165737;
7;POSITIV;positiv;p;0;18;18;18;p;1;0.6486019999974815;002;ASDG98;2019_Nov_28_1622;iat_vr;60.33666653165737;
7;BAUM;Natur;p;0;19;19;0;p;1;0.9003498000020045;002;ASDG98;2019_Nov_28_1622;iat_vr;60.33666653165737;
7;HERVORRAGEND;positiv;p;1;0;20;17;p;1;0.8949315999998362;002;ASDG98;2019_Nov_28_1622;iat_vr;60.33666653165737;
7;SCHWACH;negativ;q;1;1;21;14;q;1;0.7973395000008168;002;ASDG98;2019_Nov_28_1622;iat_vr;60.33666653165737;
7;POSITIV;positiv;p;1;2;22;18;p;1;1.111810599999444;002;ASDG98;2019_Nov_28_1622;iat_vr;60.33666653165737;
7;WASSER;Natur;p;1;3;23;1;p;1;3.3643412999990687;002;ASDG98;2019_Nov_28_1622;iat_vr;60.33666653165737;
7;GUT;positiv;p;1;4;24;19;p;1;1.3345717999982298;002;ASDG98;2019_Nov_28_1622;iat_vr;60.33666653165737;
7;TIER;Natur;p;1;5;25;3;q;0;1.6355484999985492;002;ASDG98;2019_Nov_28_1622;iat_vr;60.33666653165737;
7;STADT;Gemacht;q;1;6;26;6;q;1;0.8852550000010524;002;ASDG98;2019_Nov_28_1622;iat_vr;60.33666653165737;
7;GEBÄUDE;Gemacht;q;1;7;27;5;q;1;0.6949987999978475;002;ASDG98;2019_Nov_28_1622;iat_vr;60.33666653165737;
7;SCHLIMM;negativ;q;1;8;28;10;q;1;0.7984514999989187;002;ASDG98;2019_Nov_28_1622;iat_vr;60.33666653165737;
7;AUSGEZEICHNET;positiv;p;1;9;29;15;q;0;0.5608447999984492;002;ASDG98;2019_Nov_28_1622;iat_vr;60.33666653165737;
7;BLUME;Natur;p;1;10;30;2;p;1;3.295371599997452;002;ASDG98;2019_Nov_28_1622;iat_vr;60.33666653165737;
7;EINWANDFREI;positiv;p;1;11;31;16;p;1;0.8306006999991951;002;ASDG98;2019_Nov_28_1622;iat_vr;60.33666653165737;
7;STEIN;Natur;p;1;12;32;4;p;1;0.6623780000008992;002;ASDG98;2019_Nov_28_1622;iat_vr;60.33666653165737;
7;LAMPE;Gemacht;q;1;13;33;9;q;1;0.7642132999972091;002;ASDG98;2019_Nov_28_1622;iat_vr;60.33666653165737;
7;NEGATIV;negativ;q;1;14;34;12;q;1;0.8684366000015871;002;ASDG98;2019_Nov_28_1622;iat_vr;60.33666653165737;
7;SCHLECHT;negativ;q;1;15;35;11;q;1;0.9350235000019893;002;ASDG98;2019_Nov_28_1622;iat_vr;60.33666653165737;
7;KLEIDER;Gemacht;q;1;16;36;7;q;1;1.3356371999980183;002;ASDG98;2019_Nov_28_1622;iat_vr;60.33666653165737;
7;COMPUTER;Gemacht;q;1;17;37;8;q;1;0.5448369000005187;002;ASDG98;2019_Nov_28_1622;iat_vr;60.33666653165737;
7;BAUM;Natur;p;1;18;38;0;p;1;0.6356935000003432;002;ASDG98;2019_Nov_28_1622;iat_vr;60.33666653165737;
7;SCHÄDLICH;negativ;q;1;19;39;13;q;1;0.7953505000004952;002;ASDG98;2019_Nov_28_1622;iat_vr;60.33666653165737;
;;;;;;;;;;;002;ASDG98;2019_Nov_28_1622;iat_vr;60.33666653165737;
