Block;Word;Category;CorrResp;trials.thisRepN;trials.thisTrialN;trials.thisN;trials.thisIndex;key_resp_2.keys;key_resp_2.corr;key_resp_2.rt;session;participant;date;expName;frameRate;
1;BLUME;Natur;q;0;0;0;2;q;1;1.6434682999970391;001;ASFG97;2019_Nov_29_1537;iat_vr;59.995128396893314;
1;KLEIDER;Gemacht;p;0;1;1;7;p;1;0.8336717999918619;001;ASFG97;2019_Nov_29_1537;iat_vr;59.995128396893314;
1;TIER;Natur;q;0;2;2;3;q;1;0.6170968000078574;001;ASFG97;2019_Nov_29_1537;iat_vr;59.995128396893314;
1;STADT;Gemacht;p;0;3;3;6;p;1;1.0669426999957068;001;ASFG97;2019_Nov_29_1537;iat_vr;59.995128396893314;
1;STEIN;Natur;q;0;4;4;4;q;1;0.7335041999904206;001;ASFG97;2019_Nov_29_1537;iat_vr;59.995128396893314;
1;GEBÄUDE;Gemacht;p;0;5;5;5;p;1;0.7857800000056159;001;ASFG97;2019_Nov_29_1537;iat_vr;59.995128396893314;
1;COMPUTER;Gemacht;p;0;6;6;8;p;1;0.7562788000068394;001;ASFG97;2019_Nov_29_1537;iat_vr;59.995128396893314;
1;BAUM;Natur;q;0;7;7;0;q;1;0.6823268000007374;001;ASFG97;2019_Nov_29_1537;iat_vr;59.995128396893314;
1;WASSER;Natur;q;0;8;8;1;q;1;1.0453015999955824;001;ASFG97;2019_Nov_29_1537;iat_vr;59.995128396893314;
1;LAMPE;Gemacht;p;0;9;9;9;p;1;0.8802565999940271;001;ASFG97;2019_Nov_29_1537;iat_vr;59.995128396893314;
1;STADT;Gemacht;p;1;0;10;6;p;1;0.9978282999945804;001;ASFG97;2019_Nov_29_1537;iat_vr;59.995128396893314;
1;TIER;Natur;q;1;1;11;3;q;1;0.5989266999968095;001;ASFG97;2019_Nov_29_1537;iat_vr;59.995128396893314;
1;BAUM;Natur;q;1;2;12;0;q;1;0.7856872999982443;001;ASFG97;2019_Nov_29_1537;iat_vr;59.995128396893314;
1;KLEIDER;Gemacht;p;1;3;13;7;p;1;0.6467359999951441;001;ASFG97;2019_Nov_29_1537;iat_vr;59.995128396893314;
1;WASSER;Natur;q;1;4;14;1;q;1;0.6142848000017693;001;ASFG97;2019_Nov_29_1537;iat_vr;59.995128396893314;
1;STEIN;Natur;q;1;5;15;4;q;1;0.6479222000052687;001;ASFG97;2019_Nov_29_1537;iat_vr;59.995128396893314;
1;COMPUTER;Gemacht;p;1;6;16;8;p;1;0.630927200007136;001;ASFG97;2019_Nov_29_1537;iat_vr;59.995128396893314;
1;LAMPE;Gemacht;p;1;7;17;9;p;1;0.9987342999957036;001;ASFG97;2019_Nov_29_1537;iat_vr;59.995128396893314;
1;BLUME;Natur;q;1;8;18;2;q;1;0.6347534999949858;001;ASFG97;2019_Nov_29_1537;iat_vr;59.995128396893314;
1;GEBÄUDE;Gemacht;p;1;9;19;5;p;1;0.6305713999900036;001;ASFG97;2019_Nov_29_1537;iat_vr;59.995128396893314;
;;;;;;;;;;;001;ASFG97;2019_Nov_29_1537;iat_vr;59.995128396893314;
2;SCHLIMM;negativ;q;0;0;0;0;q;1;1.4741409000125714;001;ASFG97;2019_Nov_29_1537;iat_vr;59.995128396893314;
2;SCHLECHT;negativ;q;0;1;1;1;q;1;0.9311701999977231;001;ASFG97;2019_Nov_29_1537;iat_vr;59.995128396893314;
2;POSITIV;positiv;p;0;2;2;8;p;1;0.7926866999914637;001;ASFG97;2019_Nov_29_1537;iat_vr;59.995128396893314;
2;GUT;positiv;p;0;3;3;9;p;1;0.6444805000064662;001;ASFG97;2019_Nov_29_1537;iat_vr;59.995128396893314;
2;NEGATIV;negativ;q;0;4;4;2;q;1;1.262920799999847;001;ASFG97;2019_Nov_29_1537;iat_vr;59.995128396893314;
2;HERVORRAGEND;positiv;p;0;5;5;7;p;1;0.9578350999945542;001;ASFG97;2019_Nov_29_1537;iat_vr;59.995128396893314;
2;EINWANDFREI;positiv;p;0;6;6;6;p;1;0.975447200005874;001;ASFG97;2019_Nov_29_1537;iat_vr;59.995128396893314;
2;AUSGEZEICHNET;positiv;p;0;7;7;5;p;1;0.7581030000001192;001;ASFG97;2019_Nov_29_1537;iat_vr;59.995128396893314;
2;SCHWACH;negativ;q;0;8;8;4;q;1;0.7966243000118993;001;ASFG97;2019_Nov_29_1537;iat_vr;59.995128396893314;
2;SCHÄDLICH;negativ;q;0;9;9;3;q;1;0.7167107999994187;001;ASFG97;2019_Nov_29_1537;iat_vr;59.995128396893314;
2;HERVORRAGEND;positiv;p;1;0;10;7;p;1;1.376569300002302;001;ASFG97;2019_Nov_29_1537;iat_vr;59.995128396893314;
2;SCHWACH;negativ;q;1;1;11;4;q;1;0.7313168999971822;001;ASFG97;2019_Nov_29_1537;iat_vr;59.995128396893314;
2;SCHÄDLICH;negativ;q;1;2;12;3;q;1;0.7818486000032863;001;ASFG97;2019_Nov_29_1537;iat_vr;59.995128396893314;
2;SCHLECHT;negativ;q;1;3;13;1;q;1;0.6480771999922581;001;ASFG97;2019_Nov_29_1537;iat_vr;59.995128396893314;
2;POSITIV;positiv;p;1;4;14;8;p;1;0.6459269000042696;001;ASFG97;2019_Nov_29_1537;iat_vr;59.995128396893314;
2;NEGATIV;negativ;q;1;5;15;2;q;1;0.6757847999979276;001;ASFG97;2019_Nov_29_1537;iat_vr;59.995128396893314;
2;GUT;positiv;p;1;6;16;9;p;1;1.3827127999975346;001;ASFG97;2019_Nov_29_1537;iat_vr;59.995128396893314;
2;AUSGEZEICHNET;positiv;p;1;7;17;5;p;1;0.5759646000078646;001;ASFG97;2019_Nov_29_1537;iat_vr;59.995128396893314;
2;EINWANDFREI;positiv;p;1;8;18;6;p;1;1.023514400003478;001;ASFG97;2019_Nov_29_1537;iat_vr;59.995128396893314;
2;SCHLIMM;negativ;q;1;9;19;0;q;1;0.848308000000543;001;ASFG97;2019_Nov_29_1537;iat_vr;59.995128396893314;
;;;;;;;;;;;001;ASFG97;2019_Nov_29_1537;iat_vr;59.995128396893314;
3;HERVORRAGEND;positiv;p;0;0;0;7;p;1;1.7991722999868216;001;ASFG97;2019_Nov_29_1537;iat_vr;59.995128396893314;
3;GEBÄUDE;Gemacht;p;0;1;1;15;p;1;1.3691890999907628;001;ASFG97;2019_Nov_29_1537;iat_vr;59.995128396893314;
3;GUT;positiv;p;0;2;2;9;p;1;0.849125599997933;001;ASFG97;2019_Nov_29_1537;iat_vr;59.995128396893314;
3;LAMPE;Gemacht;p;0;3;3;19;p;1;1.0321093999955337;001;ASFG97;2019_Nov_29_1537;iat_vr;59.995128396893314;
3;TIER;Natur;q;0;4;4;13;q;1;0.7322884000022896;001;ASFG97;2019_Nov_29_1537;iat_vr;59.995128396893314;
3;SCHWACH;negativ;q;0;5;5;4;q;1;0.6964164999953937;001;ASFG97;2019_Nov_29_1537;iat_vr;59.995128396893314;
3;AUSGEZEICHNET;positiv;p;0;6;6;5;p;1;0.9269917000056012;001;ASFG97;2019_Nov_29_1537;iat_vr;59.995128396893314;
3;KLEIDER;Gemacht;p;0;7;7;17;p;1;1.330627600007574;001;ASFG97;2019_Nov_29_1537;iat_vr;59.995128396893314;
3;BLUME;Natur;q;0;8;8;12;q;1;0.6644804999959888;001;ASFG97;2019_Nov_29_1537;iat_vr;59.995128396893314;
3;EINWANDFREI;positiv;p;0;9;9;6;p;1;0.6851305999880424;001;ASFG97;2019_Nov_29_1537;iat_vr;59.995128396893314;
3;NEGATIV;negativ;q;0;10;10;2;q;1;0.7834025000047404;001;ASFG97;2019_Nov_29_1537;iat_vr;59.995128396893314;
3;POSITIV;positiv;p;0;11;11;8;p;1;0.9638985000055982;001;ASFG97;2019_Nov_29_1537;iat_vr;59.995128396893314;
3;BAUM;Natur;q;0;12;12;10;q;1;0.6655557999911252;001;ASFG97;2019_Nov_29_1537;iat_vr;59.995128396893314;
3;SCHLECHT;negativ;q;0;13;13;1;q;1;0.9480163999978686;001;ASFG97;2019_Nov_29_1537;iat_vr;59.995128396893314;
3;SCHÄDLICH;negativ;q;0;14;14;3;q;1;0.6616237999987788;001;ASFG97;2019_Nov_29_1537;iat_vr;59.995128396893314;
3;COMPUTER;Gemacht;p;0;15;15;18;p;1;0.6433911000058288;001;ASFG97;2019_Nov_29_1537;iat_vr;59.995128396893314;
3;STADT;Gemacht;p;0;16;16;16;p;1;1.2459072999918135;001;ASFG97;2019_Nov_29_1537;iat_vr;59.995128396893314;
3;STEIN;Natur;q;0;17;17;14;q;1;0.6313087999878917;001;ASFG97;2019_Nov_29_1537;iat_vr;59.995128396893314;
3;WASSER;Natur;q;0;18;18;11;q;1;0.6647700000030454;001;ASFG97;2019_Nov_29_1537;iat_vr;59.995128396893314;
3;SCHLIMM;negativ;q;0;19;19;0;q;1;0.7343503000010969;001;ASFG97;2019_Nov_29_1537;iat_vr;59.995128396893314;
;;;;;;;;;;;001;ASFG97;2019_Nov_29_1537;iat_vr;59.995128396893314;
4;COMPUTER;Gemacht;p;0;0;0;18;p;1;0.8918456999963382;001;ASFG97;2019_Nov_29_1537;iat_vr;59.995128396893314;
4;STEIN;Natur;q;0;1;1;14;q;1;0.7819844000041485;001;ASFG97;2019_Nov_29_1537;iat_vr;59.995128396893314;
4;STADT;Gemacht;p;0;2;2;16;p;1;1.0656060000037542;001;ASFG97;2019_Nov_29_1537;iat_vr;59.995128396893314;
4;BLUME;Natur;q;0;3;3;12;q;1;0.6653889000008348;001;ASFG97;2019_Nov_29_1537;iat_vr;59.995128396893314;
4;WASSER;Natur;q;0;4;4;11;q;1;1.0142954000039026;001;ASFG97;2019_Nov_29_1537;iat_vr;59.995128396893314;
4;NEGATIV;negativ;q;0;5;5;2;q;1;0.9802067999989958;001;ASFG97;2019_Nov_29_1537;iat_vr;59.995128396893314;
4;LAMPE;Gemacht;p;0;6;6;19;p;1;0.7062881000019843;001;ASFG97;2019_Nov_29_1537;iat_vr;59.995128396893314;
4;POSITIV;positiv;p;0;7;7;8;p;1;0.6471165999973891;001;ASFG97;2019_Nov_29_1537;iat_vr;59.995128396893314;
4;AUSGEZEICHNET;positiv;p;0;8;8;5;p;1;0.6769103999977233;001;ASFG97;2019_Nov_29_1537;iat_vr;59.995128396893314;
4;SCHÄDLICH;negativ;q;0;9;9;3;q;1;0.6430978000134928;001;ASFG97;2019_Nov_29_1537;iat_vr;59.995128396893314;
4;KLEIDER;Gemacht;p;0;10;10;17;p;1;0.7816440000024159;001;ASFG97;2019_Nov_29_1537;iat_vr;59.995128396893314;
4;SCHWACH;negativ;q;0;11;11;4;q;1;0.6804051000071922;001;ASFG97;2019_Nov_29_1537;iat_vr;59.995128396893314;
4;TIER;Natur;q;0;12;12;13;q;1;0.6645549999957439;001;ASFG97;2019_Nov_29_1537;iat_vr;59.995128396893314;
4;EINWANDFREI;positiv;p;0;13;13;6;p;1;0.6439310999994632;001;ASFG97;2019_Nov_29_1537;iat_vr;59.995128396893314;
4;SCHLIMM;negativ;q;0;14;14;0;q;1;0.6814019000012195;001;ASFG97;2019_Nov_29_1537;iat_vr;59.995128396893314;
4;GUT;positiv;p;0;15;15;9;p;1;0.7325618000031682;001;ASFG97;2019_Nov_29_1537;iat_vr;59.995128396893314;
4;SCHLECHT;negativ;q;0;16;16;1;q;1;0.7140069000015501;001;ASFG97;2019_Nov_29_1537;iat_vr;59.995128396893314;
4;GEBÄUDE;Gemacht;p;0;17;17;15;p;1;0.6768962000060128;001;ASFG97;2019_Nov_29_1537;iat_vr;59.995128396893314;
4;HERVORRAGEND;positiv;p;0;18;18;7;p;1;0.6841999999887776;001;ASFG97;2019_Nov_29_1537;iat_vr;59.995128396893314;
4;BAUM;Natur;q;0;19;19;10;q;1;0.749116299994057;001;ASFG97;2019_Nov_29_1537;iat_vr;59.995128396893314;
4;EINWANDFREI;positiv;p;1;0;20;6;p;1;0.6964912999974331;001;ASFG97;2019_Nov_29_1537;iat_vr;59.995128396893314;
4;KLEIDER;Gemacht;p;1;1;21;17;p;1;0.6613611999928253;001;ASFG97;2019_Nov_29_1537;iat_vr;59.995128396893314;
4;SCHLIMM;negativ;q;1;2;22;0;q;1;0.7023634999932256;001;ASFG97;2019_Nov_29_1537;iat_vr;59.995128396893314;
4;BAUM;Natur;q;1;3;23;10;q;1;1.300321200003964;001;ASFG97;2019_Nov_29_1537;iat_vr;59.995128396893314;
4;AUSGEZEICHNET;positiv;p;1;4;24;5;p;1;0.642634600008023;001;ASFG97;2019_Nov_29_1537;iat_vr;59.995128396893314;
4;BLUME;Natur;q;1;5;25;12;q;1;1.1853115999983856;001;ASFG97;2019_Nov_29_1537;iat_vr;59.995128396893314;
4;TIER;Natur;q;1;6;26;13;q;1;0.5961449000024004;001;ASFG97;2019_Nov_29_1537;iat_vr;59.995128396893314;
4;STEIN;Natur;q;1;7;27;14;q;1;0.6848205999995116;001;ASFG97;2019_Nov_29_1537;iat_vr;59.995128396893314;
4;SCHWACH;negativ;q;1;8;28;4;q;1;0.64870589999191;001;ASFG97;2019_Nov_29_1537;iat_vr;59.995128396893314;
4;GEBÄUDE;Gemacht;p;1;9;29;15;p;1;0.6806941999966512;001;ASFG97;2019_Nov_29_1537;iat_vr;59.995128396893314;
4;GUT;positiv;p;1;10;30;9;p;1;0.5648236999986693;001;ASFG97;2019_Nov_29_1537;iat_vr;59.995128396893314;
4;COMPUTER;Gemacht;p;1;11;31;18;p;1;0.9832855999993626;001;ASFG97;2019_Nov_29_1537;iat_vr;59.995128396893314;
4;WASSER;Natur;q;1;12;32;11;q;1;0.5980036999972071;001;ASFG97;2019_Nov_29_1537;iat_vr;59.995128396893314;
4;SCHLECHT;negativ;q;1;13;33;1;q;1;0.5970775000023423;001;ASFG97;2019_Nov_29_1537;iat_vr;59.995128396893314;
4;HERVORRAGEND;positiv;p;1;14;34;7;p;1;0.6280385999998543;001;ASFG97;2019_Nov_29_1537;iat_vr;59.995128396893314;
4;SCHÄDLICH;negativ;q;1;15;35;3;q;1;0.6299171999999089;001;ASFG97;2019_Nov_29_1537;iat_vr;59.995128396893314;
4;STADT;Gemacht;p;1;16;36;16;p;1;0.6481101000099443;001;ASFG97;2019_Nov_29_1537;iat_vr;59.995128396893314;
4;NEGATIV;negativ;q;1;17;37;2;q;1;0.6482152999960817;001;ASFG97;2019_Nov_29_1537;iat_vr;59.995128396893314;
4;LAMPE;Gemacht;p;1;18;38;19;p;1;0.9852667000086512;001;ASFG97;2019_Nov_29_1537;iat_vr;59.995128396893314;
4;POSITIV;positiv;p;1;19;39;8;p;1;0.5823387000127696;001;ASFG97;2019_Nov_29_1537;iat_vr;59.995128396893314;
;;;;;;;;;;;001;ASFG97;2019_Nov_29_1537;iat_vr;59.995128396893314;
5;WASSER;Natur;p;0;0;0;1;p;1;1.2754515999986324;001;ASFG97;2019_Nov_29_1537;iat_vr;59.995128396893314;
5;KLEIDER;Gemacht;q;0;1;1;7;q;1;0.7678532999998424;001;ASFG97;2019_Nov_29_1537;iat_vr;59.995128396893314;
5;LAMPE;Gemacht;q;0;2;2;9;q;1;0.7973781999899074;001;ASFG97;2019_Nov_29_1537;iat_vr;59.995128396893314;
5;STADT;Gemacht;q;0;3;3;6;q;1;0.8159738999966066;001;ASFG97;2019_Nov_29_1537;iat_vr;59.995128396893314;
5;GEBÄUDE;Gemacht;q;0;4;4;5;q;1;0.6795719000074314;001;ASFG97;2019_Nov_29_1537;iat_vr;59.995128396893314;
5;BAUM;Natur;p;0;5;5;0;p;1;0.6809236999979476;001;ASFG97;2019_Nov_29_1537;iat_vr;59.995128396893314;
5;COMPUTER;Gemacht;q;0;6;6;8;q;1;0.6511445999931311;001;ASFG97;2019_Nov_29_1537;iat_vr;59.995128396893314;
5;TIER;Natur;p;0;7;7;3;p;1;0.6676313999923877;001;ASFG97;2019_Nov_29_1537;iat_vr;59.995128396893314;
5;STEIN;Natur;p;0;8;8;4;p;1;0.6809458999923663;001;ASFG97;2019_Nov_29_1537;iat_vr;59.995128396893314;
5;BLUME;Natur;p;0;9;9;2;p;1;0.5325303999998141;001;ASFG97;2019_Nov_29_1537;iat_vr;59.995128396893314;
5;KLEIDER;Gemacht;q;1;0;10;7;q;1;0.6112205000099493;001;ASFG97;2019_Nov_29_1537;iat_vr;59.995128396893314;
5;WASSER;Natur;p;1;1;11;1;p;1;0.7023393999988912;001;ASFG97;2019_Nov_29_1537;iat_vr;59.995128396893314;
5;LAMPE;Gemacht;q;1;2;12;9;q;1;0.6466399999917485;001;ASFG97;2019_Nov_29_1537;iat_vr;59.995128396893314;
5;BLUME;Natur;p;1;3;13;2;p;1;0.998735699991812;001;ASFG97;2019_Nov_29_1537;iat_vr;59.995128396893314;
5;COMPUTER;Gemacht;q;1;4;14;8;q;1;1.1188535999972373;001;ASFG97;2019_Nov_29_1537;iat_vr;59.995128396893314;
5;STEIN;Natur;p;1;5;15;4;p;1;0.7148115000018151;001;ASFG97;2019_Nov_29_1537;iat_vr;59.995128396893314;
5;TIER;Natur;p;1;6;16;3;p;1;0.5636030000023311;001;ASFG97;2019_Nov_29_1537;iat_vr;59.995128396893314;
5;GEBÄUDE;Gemacht;q;1;7;17;5;q;1;0.5668652999884216;001;ASFG97;2019_Nov_29_1537;iat_vr;59.995128396893314;
5;STADT;Gemacht;q;1;8;18;6;q;1;0.9007527999929152;001;ASFG97;2019_Nov_29_1537;iat_vr;59.995128396893314;
5;BAUM;Natur;p;1;9;19;0;p;1;0.5467408999975305;001;ASFG97;2019_Nov_29_1537;iat_vr;59.995128396893314;
;;;;;;;;;;;001;ASFG97;2019_Nov_29_1537;iat_vr;59.995128396893314;
6;SCHLECHT;negativ;q;0;0;0;11;q;1;1.1569565000099828;001;ASFG97;2019_Nov_29_1537;iat_vr;59.995128396893314;
6;WASSER;Natur;p;0;1;1;1;p;1;0.6296045999915805;001;ASFG97;2019_Nov_29_1537;iat_vr;59.995128396893314;
6;GUT;positiv;p;0;2;2;19;p;1;0.7336264999903506;001;ASFG97;2019_Nov_29_1537;iat_vr;59.995128396893314;
6;BLUME;Natur;p;0;3;3;2;p;1;0.5855659999942873;001;ASFG97;2019_Nov_29_1537;iat_vr;59.995128396893314;
6;POSITIV;positiv;p;0;4;4;18;p;1;0.5841627000045264;001;ASFG97;2019_Nov_29_1537;iat_vr;59.995128396893314;
6;LAMPE;Gemacht;q;0;5;5;9;q;1;0.578427999993437;001;ASFG97;2019_Nov_29_1537;iat_vr;59.995128396893314;
6;NEGATIV;negativ;q;0;6;6;12;q;1;0.6125070999987656;001;ASFG97;2019_Nov_29_1537;iat_vr;59.995128396893314;
6;SCHÄDLICH;negativ;q;0;7;7;13;q;1;0.5508638000028441;001;ASFG97;2019_Nov_29_1537;iat_vr;59.995128396893314;
6;SCHLIMM;negativ;q;0;8;8;10;q;1;0.5952893000066979;001;ASFG97;2019_Nov_29_1537;iat_vr;59.995128396893314;
6;STEIN;Natur;p;0;9;9;4;p;1;0.6840229999943404;001;ASFG97;2019_Nov_29_1537;iat_vr;59.995128396893314;
6;HERVORRAGEND;positiv;p;0;10;10;17;p;1;0.5635941000073217;001;ASFG97;2019_Nov_29_1537;iat_vr;59.995128396893314;
6;COMPUTER;Gemacht;q;0;11;11;8;q;1;0.5842512999952305;001;ASFG97;2019_Nov_29_1537;iat_vr;59.995128396893314;
6;GEBÄUDE;Gemacht;q;0;12;12;5;q;1;0.5269273000012618;001;ASFG97;2019_Nov_29_1537;iat_vr;59.995128396893314;
6;AUSGEZEICHNET;positiv;p;0;13;13;15;p;1;0.5495679000014206;001;ASFG97;2019_Nov_29_1537;iat_vr;59.995128396893314;
6;EINWANDFREI;positiv;p;0;14;14;16;p;1;0.6857885999925202;001;ASFG97;2019_Nov_29_1537;iat_vr;59.995128396893314;
6;KLEIDER;Gemacht;q;0;15;15;7;q;1;0.6294387000089046;001;ASFG97;2019_Nov_29_1537;iat_vr;59.995128396893314;
6;BAUM;Natur;p;0;16;16;0;p;1;0.563154300005408;001;ASFG97;2019_Nov_29_1537;iat_vr;59.995128396893314;
6;SCHWACH;negativ;q;0;17;17;14;q;1;0.6185411000042222;001;ASFG97;2019_Nov_29_1537;iat_vr;59.995128396893314;
6;TIER;Natur;p;0;18;18;3;p;1;0.5653746000025421;001;ASFG97;2019_Nov_29_1537;iat_vr;59.995128396893314;
6;STADT;Gemacht;q;0;19;19;6;q;1;0.848067800005083;001;ASFG97;2019_Nov_29_1537;iat_vr;59.995128396893314;
;;;;;;;;;;;001;ASFG97;2019_Nov_29_1537;iat_vr;59.995128396893314;
7;GEBÄUDE;Gemacht;q;0;0;0;5;q;1;0.8209142999985488;001;ASFG97;2019_Nov_29_1537;iat_vr;59.995128396893314;
7;BAUM;Natur;p;0;1;1;0;p;1;0.5825346999918111;001;ASFG97;2019_Nov_29_1537;iat_vr;59.995128396893314;
7;STEIN;Natur;p;0;2;2;4;p;1;0.596026700004586;001;ASFG97;2019_Nov_29_1537;iat_vr;59.995128396893314;
7;HERVORRAGEND;positiv;p;0;3;3;17;p;1;0.5857025000004796;001;ASFG97;2019_Nov_29_1537;iat_vr;59.995128396893314;
7;SCHÄDLICH;negativ;q;0;4;4;13;q;1;0.5121148999896832;001;ASFG97;2019_Nov_29_1537;iat_vr;59.995128396893314;
7;EINWANDFREI;positiv;p;0;5;5;16;p;1;0.6473220000043511;001;ASFG97;2019_Nov_29_1537;iat_vr;59.995128396893314;
7;GUT;positiv;p;0;6;6;19;p;1;0.5675199999968754;001;ASFG97;2019_Nov_29_1537;iat_vr;59.995128396893314;
7;LAMPE;Gemacht;q;0;7;7;9;q;1;0.664397899992764;001;ASFG97;2019_Nov_29_1537;iat_vr;59.995128396893314;
7;STADT;Gemacht;q;0;8;8;6;q;1;0.6289660000038566;001;ASFG97;2019_Nov_29_1537;iat_vr;59.995128396893314;
7;BLUME;Natur;p;0;9;9;2;p;1;0.6311874999955762;001;ASFG97;2019_Nov_29_1537;iat_vr;59.995128396893314;
7;WASSER;Natur;p;0;10;10;1;p;1;0.5991810999985319;001;ASFG97;2019_Nov_29_1537;iat_vr;59.995128396893314;
7;SCHWACH;negativ;q;0;11;11;14;q;1;0.652107400004752;001;ASFG97;2019_Nov_29_1537;iat_vr;59.995128396893314;
7;COMPUTER;Gemacht;q;0;12;12;8;q;1;0.6967201000079513;001;ASFG97;2019_Nov_29_1537;iat_vr;59.995128396893314;
7;SCHLIMM;negativ;q;0;13;13;10;q;1;0.5288035000121454;001;ASFG97;2019_Nov_29_1537;iat_vr;59.995128396893314;
7;AUSGEZEICHNET;positiv;p;0;14;14;15;p;1;0.49284209999314044;001;ASFG97;2019_Nov_29_1537;iat_vr;59.995128396893314;
7;SCHLECHT;negativ;q;0;15;15;11;q;1;0.5823402000096394;001;ASFG97;2019_Nov_29_1537;iat_vr;59.995128396893314;
7;KLEIDER;Gemacht;q;0;16;16;7;q;1;0.6273483999975724;001;ASFG97;2019_Nov_29_1537;iat_vr;59.995128396893314;
7;TIER;Natur;p;0;17;17;3;p;1;0.5486970999918412;001;ASFG97;2019_Nov_29_1537;iat_vr;59.995128396893314;
7;POSITIV;positiv;p;0;18;18;18;p;1;0.5305231000093045;001;ASFG97;2019_Nov_29_1537;iat_vr;59.995128396893314;
7;NEGATIV;negativ;q;0;19;19;12;q;1;0.8124654999992345;001;ASFG97;2019_Nov_29_1537;iat_vr;59.995128396893314;
7;GEBÄUDE;Gemacht;q;1;0;20;5;q;1;0.7812419999972917;001;ASFG97;2019_Nov_29_1537;iat_vr;59.995128396893314;
7;BLUME;Natur;p;1;1;21;2;p;1;0.5470712999958778;001;ASFG97;2019_Nov_29_1537;iat_vr;59.995128396893314;
7;COMPUTER;Gemacht;q;1;2;22;8;q;1;0.7853078000043752;001;ASFG97;2019_Nov_29_1537;iat_vr;59.995128396893314;
7;GUT;positiv;p;1;3;23;19;p;1;0.5149481999978889;001;ASFG97;2019_Nov_29_1537;iat_vr;59.995128396893314;
7;STADT;Gemacht;q;1;4;24;6;q;1;0.5505812999908812;001;ASFG97;2019_Nov_29_1537;iat_vr;59.995128396893314;
7;HERVORRAGEND;positiv;p;1;5;25;17;p;1;0.5189451000042027;001;ASFG97;2019_Nov_29_1537;iat_vr;59.995128396893314;
7;SCHLIMM;negativ;q;1;6;26;10;q;1;0.5972313000092981;001;ASFG97;2019_Nov_29_1537;iat_vr;59.995128396893314;
7;SCHLECHT;negativ;q;1;7;27;11;q;1;0.5630589000065811;001;ASFG97;2019_Nov_29_1537;iat_vr;59.995128396893314;
7;SCHÄDLICH;negativ;q;1;8;28;13;q;1;0.7519494000007398;001;ASFG97;2019_Nov_29_1537;iat_vr;59.995128396893314;
7;BAUM;Natur;p;1;9;29;0;p;1;0.5503925999946659;001;ASFG97;2019_Nov_29_1537;iat_vr;59.995128396893314;
7;TIER;Natur;p;1;10;30;3;p;1;0.5503585999977076;001;ASFG97;2019_Nov_29_1537;iat_vr;59.995128396893314;
7;NEGATIV;negativ;q;1;11;31;12;q;1;0.6004107000044314;001;ASFG97;2019_Nov_29_1537;iat_vr;59.995128396893314;
7;KLEIDER;Gemacht;q;1;12;32;7;q;1;0.7194837999995798;001;ASFG97;2019_Nov_29_1537;iat_vr;59.995128396893314;
7;AUSGEZEICHNET;positiv;p;1;13;33;15;p;1;0.9109656000073301;001;ASFG97;2019_Nov_29_1537;iat_vr;59.995128396893314;
7;POSITIV;positiv;p;1;14;34;18;p;1;0.5523633999982849;001;ASFG97;2019_Nov_29_1537;iat_vr;59.995128396893314;
7;LAMPE;Gemacht;q;1;15;35;9;q;1;0.5489006000134395;001;ASFG97;2019_Nov_29_1537;iat_vr;59.995128396893314;
7;EINWANDFREI;positiv;p;1;16;36;16;p;1;0.5521282999980031;001;ASFG97;2019_Nov_29_1537;iat_vr;59.995128396893314;
7;WASSER;Natur;p;1;17;37;1;p;1;0.6308070999948541;001;ASFG97;2019_Nov_29_1537;iat_vr;59.995128396893314;
7;STEIN;Natur;p;1;18;38;4;p;1;0.6512858999922173;001;ASFG97;2019_Nov_29_1537;iat_vr;59.995128396893314;
7;SCHWACH;negativ;q;1;19;39;14;q;1;0.5313491000124486;001;ASFG97;2019_Nov_29_1537;iat_vr;59.995128396893314;
;;;;;;;;;;;001;ASFG97;2019_Nov_29_1537;iat_vr;59.995128396893314;
