Block;Word;Category;CorrResp;trials.thisRepN;trials.thisTrialN;trials.thisN;trials.thisIndex;key_resp_2.keys;key_resp_2.corr;key_resp_2.rt;session;participant;date;expName;frameRate;
1;TIER;Natur;q;0;0;0;3;q;1;2.907359100001486;002;ASHK62;2019_Nov_28_1438;iat_vr;59.95354798977434;
1;STEIN;Natur;q;0;1;1;4;q;1;0.8077749999974912;002;ASHK62;2019_Nov_28_1438;iat_vr;59.95354798977434;
1;COMPUTER;Gemacht;p;0;2;2;8;p;1;0.9493795999987924;002;ASHK62;2019_Nov_28_1438;iat_vr;59.95354798977434;
1;STADT;Gemacht;p;0;3;3;6;p;1;0.7573370999998588;002;ASHK62;2019_Nov_28_1438;iat_vr;59.95354798977434;
1;GEBÄUDE;Gemacht;p;0;4;4;5;p;1;0.734350099999574;002;ASHK62;2019_Nov_28_1438;iat_vr;59.95354798977434;
1;BLUME;Natur;q;0;5;5;2;q;1;0.7826252999984717;002;ASHK62;2019_Nov_28_1438;iat_vr;59.95354798977434;
1;BAUM;Natur;q;0;6;6;0;q;1;1.0933321000011347;002;ASHK62;2019_Nov_28_1438;iat_vr;59.95354798977434;
1;LAMPE;Gemacht;p;0;7;7;9;p;1;0.8647003000005498;002;ASHK62;2019_Nov_28_1438;iat_vr;59.95354798977434;
1;WASSER;Natur;q;0;8;8;1;q;1;0.7355640999994648;002;ASHK62;2019_Nov_28_1438;iat_vr;59.95354798977434;
1;KLEIDER;Gemacht;p;0;9;9;7;p;1;0.8421612000020104;002;ASHK62;2019_Nov_28_1438;iat_vr;59.95354798977434;
1;GEBÄUDE;Gemacht;p;1;0;10;5;p;1;0.6525780999982089;002;ASHK62;2019_Nov_28_1438;iat_vr;59.95354798977434;
1;KLEIDER;Gemacht;p;1;1;11;7;p;1;0.7453715999981796;002;ASHK62;2019_Nov_28_1438;iat_vr;59.95354798977434;
1;COMPUTER;Gemacht;p;1;2;12;8;p;1;0.67766599999959;002;ASHK62;2019_Nov_28_1438;iat_vr;59.95354798977434;
1;BAUM;Natur;q;1;3;13;0;q;1;0.7128670000020065;002;ASHK62;2019_Nov_28_1438;iat_vr;59.95354798977434;
1;BLUME;Natur;q;1;4;14;2;q;1;0.6519680000019434;002;ASHK62;2019_Nov_28_1438;iat_vr;59.95354798977434;
1;STADT;Gemacht;p;1;5;15;6;p;1;0.8976476999996521;002;ASHK62;2019_Nov_28_1438;iat_vr;59.95354798977434;
1;WASSER;Natur;q;1;6;16;1;q;1;1.1615150999969046;002;ASHK62;2019_Nov_28_1438;iat_vr;59.95354798977434;
1;STEIN;Natur;q;1;7;17;4;q;1;0.7175439999991795;002;ASHK62;2019_Nov_28_1438;iat_vr;59.95354798977434;
1;LAMPE;Gemacht;p;1;8;18;9;p;1;0.9421665999980178;002;ASHK62;2019_Nov_28_1438;iat_vr;59.95354798977434;
1;TIER;Natur;q;1;9;19;3;q;1;0.9679479999977048;002;ASHK62;2019_Nov_28_1438;iat_vr;59.95354798977434;
;;;;;;;;;;;002;ASHK62;2019_Nov_28_1438;iat_vr;59.95354798977434;
2;EINWANDFREI;positiv;p;0;0;0;6;p;1;1.1686373999982607;002;ASHK62;2019_Nov_28_1438;iat_vr;59.95354798977434;
2;POSITIV;positiv;p;0;1;1;8;p;1;0.777042400000937;002;ASHK62;2019_Nov_28_1438;iat_vr;59.95354798977434;
2;HERVORRAGEND;positiv;p;0;2;2;7;p;1;0.7029986000015924;002;ASHK62;2019_Nov_28_1438;iat_vr;59.95354798977434;
2;AUSGEZEICHNET;positiv;p;0;3;3;5;p;1;0.6673592000006465;002;ASHK62;2019_Nov_28_1438;iat_vr;59.95354798977434;
2;SCHLIMM;negativ;q;0;4;4;0;q;1;0.7308708999989904;002;ASHK62;2019_Nov_28_1438;iat_vr;59.95354798977434;
2;GUT;positiv;p;0;5;5;9;p;1;0.698694599999726;002;ASHK62;2019_Nov_28_1438;iat_vr;59.95354798977434;
2;SCHÄDLICH;negativ;q;0;6;6;3;q;1;0.978333000002749;002;ASHK62;2019_Nov_28_1438;iat_vr;59.95354798977434;
2;NEGATIV;negativ;q;0;7;7;2;q;1;0.7785082000009425;002;ASHK62;2019_Nov_28_1438;iat_vr;59.95354798977434;
2;SCHLECHT;negativ;q;0;8;8;1;q;1;0.6855464000000211;002;ASHK62;2019_Nov_28_1438;iat_vr;59.95354798977434;
2;SCHWACH;negativ;q;0;9;9;4;q;1;0.7679571000007854;002;ASHK62;2019_Nov_28_1438;iat_vr;59.95354798977434;
2;SCHLIMM;negativ;q;1;0;10;0;q;1;0.5972315999970306;002;ASHK62;2019_Nov_28_1438;iat_vr;59.95354798977434;
2;EINWANDFREI;positiv;p;1;1;11;6;p;1;0.7800967000002856;002;ASHK62;2019_Nov_28_1438;iat_vr;59.95354798977434;
2;AUSGEZEICHNET;positiv;p;1;2;12;5;p;1;0.777516399997694;002;ASHK62;2019_Nov_28_1438;iat_vr;59.95354798977434;
2;GUT;positiv;p;1;3;13;9;p;1;0.7323598000002676;002;ASHK62;2019_Nov_28_1438;iat_vr;59.95354798977434;
2;POSITIV;positiv;p;1;4;14;8;p;1;0.6982093000005989;002;ASHK62;2019_Nov_28_1438;iat_vr;59.95354798977434;
2;SCHÄDLICH;negativ;q;1;5;15;3;q;1;0.7605512999980419;002;ASHK62;2019_Nov_28_1438;iat_vr;59.95354798977434;
2;SCHWACH;negativ;q;1;6;16;4;q;1;0.7804299000017636;002;ASHK62;2019_Nov_28_1438;iat_vr;59.95354798977434;
2;SCHLECHT;negativ;q;1;7;17;1;q;1;0.7170972999992955;002;ASHK62;2019_Nov_28_1438;iat_vr;59.95354798977434;
2;HERVORRAGEND;positiv;p;1;8;18;7;p;1;0.7441512000004877;002;ASHK62;2019_Nov_28_1438;iat_vr;59.95354798977434;
2;NEGATIV;negativ;q;1;9;19;2;q;1;1.0630730000011681;002;ASHK62;2019_Nov_28_1438;iat_vr;59.95354798977434;
;;;;;;;;;;;002;ASHK62;2019_Nov_28_1438;iat_vr;59.95354798977434;
3;SCHLECHT;negativ;q;0;0;0;1;q;1;1.880685899999662;002;ASHK62;2019_Nov_28_1438;iat_vr;59.95354798977434;
3;POSITIV;positiv;p;0;1;1;8;p;1;1.2017616000011913;002;ASHK62;2019_Nov_28_1438;iat_vr;59.95354798977434;
3;STADT;Gemacht;p;0;2;2;16;p;1;2.284462400002667;002;ASHK62;2019_Nov_28_1438;iat_vr;59.95354798977434;
3;GEBÄUDE;Gemacht;p;0;3;3;15;p;1;1.0489561000031244;002;ASHK62;2019_Nov_28_1438;iat_vr;59.95354798977434;
3;GUT;positiv;p;0;4;4;9;p;1;3.2299703000026057;002;ASHK62;2019_Nov_28_1438;iat_vr;59.95354798977434;
3;COMPUTER;Gemacht;p;0;5;5;18;p;1;2.111725700000534;002;ASHK62;2019_Nov_28_1438;iat_vr;59.95354798977434;
3;LAMPE;Gemacht;p;0;6;6;19;p;1;1.0318235000013374;002;ASHK62;2019_Nov_28_1438;iat_vr;59.95354798977434;
3;SCHLIMM;negativ;q;0;7;7;0;q;1;0.8688352000026498;002;ASHK62;2019_Nov_28_1438;iat_vr;59.95354798977434;
3;STEIN;Natur;q;0;8;8;14;q;1;3.961661900000763;002;ASHK62;2019_Nov_28_1438;iat_vr;59.95354798977434;
3;BAUM;Natur;q;0;9;9;10;q;1;1.0981589000002714;002;ASHK62;2019_Nov_28_1438;iat_vr;59.95354798977434;
3;HERVORRAGEND;positiv;p;0;10;10;7;p;1;0.9145085000018298;002;ASHK62;2019_Nov_28_1438;iat_vr;59.95354798977434;
3;KLEIDER;Gemacht;p;0;11;11;17;p;1;1.1592716999984987;002;ASHK62;2019_Nov_28_1438;iat_vr;59.95354798977434;
3;SCHÄDLICH;negativ;q;0;12;12;3;q;1;3.016953900001681;002;ASHK62;2019_Nov_28_1438;iat_vr;59.95354798977434;
3;NEGATIV;negativ;q;0;13;13;2;q;1;0.7850252999996883;002;ASHK62;2019_Nov_28_1438;iat_vr;59.95354798977434;
3;WASSER;Natur;q;0;14;14;11;q;1;2.702142599999206;002;ASHK62;2019_Nov_28_1438;iat_vr;59.95354798977434;
3;AUSGEZEICHNET;positiv;p;0;15;15;5;p;1;0.8444439999984752;002;ASHK62;2019_Nov_28_1438;iat_vr;59.95354798977434;
3;BLUME;Natur;q;0;16;16;12;q;1;2.5819149000017205;002;ASHK62;2019_Nov_28_1438;iat_vr;59.95354798977434;
3;EINWANDFREI;positiv;p;0;17;17;6;p;1;1.2814413999985845;002;ASHK62;2019_Nov_28_1438;iat_vr;59.95354798977434;
3;TIER;Natur;q;0;18;18;13;q;1;1.3484539999990375;002;ASHK62;2019_Nov_28_1438;iat_vr;59.95354798977434;
3;SCHWACH;negativ;q;0;19;19;4;q;1;1.6325131999983569;002;ASHK62;2019_Nov_28_1438;iat_vr;59.95354798977434;
;;;;;;;;;;;002;ASHK62;2019_Nov_28_1438;iat_vr;59.95354798977434;
4;SCHWACH;negativ;q;0;0;0;4;q;1;3.3571431999989727;002;ASHK62;2019_Nov_28_1438;iat_vr;59.95354798977434;
4;BAUM;Natur;q;0;1;1;10;q;1;1.1651099999980943;002;ASHK62;2019_Nov_28_1438;iat_vr;59.95354798977434;
4;POSITIV;positiv;p;0;2;2;8;p;1;1.2676829000010912;002;ASHK62;2019_Nov_28_1438;iat_vr;59.95354798977434;
4;TIER;Natur;q;0;3;3;13;q;1;2.5009250000002794;002;ASHK62;2019_Nov_28_1438;iat_vr;59.95354798977434;
4;SCHÄDLICH;negativ;q;0;4;4;3;q;1;1.5166301999997813;002;ASHK62;2019_Nov_28_1438;iat_vr;59.95354798977434;
4;BLUME;Natur;q;0;5;5;12;q;1;0.9624292999978934;002;ASHK62;2019_Nov_28_1438;iat_vr;59.95354798977434;
4;STADT;Gemacht;p;0;6;6;16;p;1;0.8679228000000876;002;ASHK62;2019_Nov_28_1438;iat_vr;59.95354798977434;
4;SCHLIMM;negativ;q;0;7;7;0;q;1;0.8805262999994738;002;ASHK62;2019_Nov_28_1438;iat_vr;59.95354798977434;
4;COMPUTER;Gemacht;p;0;8;8;18;p;1;1.080854799998633;002;ASHK62;2019_Nov_28_1438;iat_vr;59.95354798977434;
4;LAMPE;Gemacht;p;0;9;9;19;p;1;0.831387199999881;002;ASHK62;2019_Nov_28_1438;iat_vr;59.95354798977434;
4;STEIN;Natur;q;0;10;10;14;q;1;0.8647707999989507;002;ASHK62;2019_Nov_28_1438;iat_vr;59.95354798977434;
4;NEGATIV;negativ;q;0;11;11;2;q;1;1.1319904000010865;002;ASHK62;2019_Nov_28_1438;iat_vr;59.95354798977434;
4;HERVORRAGEND;positiv;p;0;12;12;7;p;1;0.8708452999999281;002;ASHK62;2019_Nov_28_1438;iat_vr;59.95354798977434;
4;GEBÄUDE;Gemacht;p;0;13;13;15;p;1;0.9819470999973419;002;ASHK62;2019_Nov_28_1438;iat_vr;59.95354798977434;
4;AUSGEZEICHNET;positiv;p;0;14;14;5;p;1;0.8465804000006756;002;ASHK62;2019_Nov_28_1438;iat_vr;59.95354798977434;
4;KLEIDER;Gemacht;p;0;15;15;17;p;1;0.6292804000004253;002;ASHK62;2019_Nov_28_1438;iat_vr;59.95354798977434;
4;GUT;positiv;p;0;16;16;9;p;1;2.5143991999975697;002;ASHK62;2019_Nov_28_1438;iat_vr;59.95354798977434;
4;SCHLECHT;negativ;q;0;17;17;1;q;1;0.8834220999997342;002;ASHK62;2019_Nov_28_1438;iat_vr;59.95354798977434;
4;EINWANDFREI;positiv;p;0;18;18;6;p;1;1.048605600000883;002;ASHK62;2019_Nov_28_1438;iat_vr;59.95354798977434;
4;WASSER;Natur;q;0;19;19;11;q;1;0.7819521999990684;002;ASHK62;2019_Nov_28_1438;iat_vr;59.95354798977434;
4;NEGATIV;negativ;q;1;0;20;2;q;1;0.7303713999972388;002;ASHK62;2019_Nov_28_1438;iat_vr;59.95354798977434;
4;STEIN;Natur;q;1;1;21;14;q;1;0.9841928999994707;002;ASHK62;2019_Nov_28_1438;iat_vr;59.95354798977434;
4;BAUM;Natur;q;1;2;22;10;q;1;0.5655967999991844;002;ASHK62;2019_Nov_28_1438;iat_vr;59.95354798977434;
4;GUT;positiv;p;1;3;23;9;p;1;0.9147396000007575;002;ASHK62;2019_Nov_28_1438;iat_vr;59.95354798977434;
4;WASSER;Natur;q;1;4;24;11;q;1;1.2181006999999227;002;ASHK62;2019_Nov_28_1438;iat_vr;59.95354798977434;
4;COMPUTER;Gemacht;p;1;5;25;18;p;1;1.0314246999987517;002;ASHK62;2019_Nov_28_1438;iat_vr;59.95354798977434;
4;KLEIDER;Gemacht;p;1;6;26;17;p;1;0.9817578999973193;002;ASHK62;2019_Nov_28_1438;iat_vr;59.95354798977434;
4;TIER;Natur;q;1;7;27;13;q;1;1.048536400001467;002;ASHK62;2019_Nov_28_1438;iat_vr;59.95354798977434;
4;STADT;Gemacht;p;1;8;28;16;p;1;0.9810307999978249;002;ASHK62;2019_Nov_28_1438;iat_vr;59.95354798977434;
4;SCHÄDLICH;negativ;q;1;9;29;3;q;1;1.314480500001082;002;ASHK62;2019_Nov_28_1438;iat_vr;59.95354798977434;
4;SCHWACH;negativ;q;1;10;30;4;q;1;0.9023975999989489;002;ASHK62;2019_Nov_28_1438;iat_vr;59.95354798977434;
4;GEBÄUDE;Gemacht;p;1;11;31;15;p;1;1.976712799998495;002;ASHK62;2019_Nov_28_1438;iat_vr;59.95354798977434;
4;EINWANDFREI;positiv;p;1;12;32;6;p;1;0.8758402999992541;002;ASHK62;2019_Nov_28_1438;iat_vr;59.95354798977434;
4;HERVORRAGEND;positiv;p;1;13;33;7;p;1;0.6852213000020129;002;ASHK62;2019_Nov_28_1438;iat_vr;59.95354798977434;
4;SCHLIMM;negativ;q;1;14;34;0;q;1;0.9619927000021562;002;ASHK62;2019_Nov_28_1438;iat_vr;59.95354798977434;
4;LAMPE;Gemacht;p;1;15;35;19;p;1;1.2003824000021268;002;ASHK62;2019_Nov_28_1438;iat_vr;59.95354798977434;
4;SCHLECHT;negativ;q;1;16;36;1;q;1;1.0188600000001315;002;ASHK62;2019_Nov_28_1438;iat_vr;59.95354798977434;
4;AUSGEZEICHNET;positiv;p;1;17;37;5;p;1;0.94526709999991;002;ASHK62;2019_Nov_28_1438;iat_vr;59.95354798977434;
4;POSITIV;positiv;p;1;18;38;8;p;1;1.1441500000000815;002;ASHK62;2019_Nov_28_1438;iat_vr;59.95354798977434;
4;BLUME;Natur;q;1;19;39;12;q;1;1.6318847999973514;002;ASHK62;2019_Nov_28_1438;iat_vr;59.95354798977434;
;;;;;;;;;;;002;ASHK62;2019_Nov_28_1438;iat_vr;59.95354798977434;
5;TIER;Natur;p;0;0;0;3;p;1;2.7178674999995565;002;ASHK62;2019_Nov_28_1438;iat_vr;59.95354798977434;
5;STADT;Gemacht;q;0;1;1;6;q;1;6.129674600000726;002;ASHK62;2019_Nov_28_1438;iat_vr;59.95354798977434;
5;GEBÄUDE;Gemacht;q;0;2;2;5;q;1;1.2699243999995815;002;ASHK62;2019_Nov_28_1438;iat_vr;59.95354798977434;
5;KLEIDER;Gemacht;q;0;3;3;7;q;1;0.8641835000016727;002;ASHK62;2019_Nov_28_1438;iat_vr;59.95354798977434;
5;BLUME;Natur;p;0;4;4;2;p;1;0.9809482999989996;002;ASHK62;2019_Nov_28_1438;iat_vr;59.95354798977434;
5;BAUM;Natur;p;0;5;5;0;p;1;0.8022975999992923;002;ASHK62;2019_Nov_28_1438;iat_vr;59.95354798977434;
5;LAMPE;Gemacht;q;0;6;6;9;q;1;0.864119000001665;002;ASHK62;2019_Nov_28_1438;iat_vr;59.95354798977434;
5;STEIN;Natur;p;0;7;7;4;p;1;1.7659660999997868;002;ASHK62;2019_Nov_28_1438;iat_vr;59.95354798977434;
5;COMPUTER;Gemacht;q;0;8;8;8;q;1;0.8465437999984715;002;ASHK62;2019_Nov_28_1438;iat_vr;59.95354798977434;
5;WASSER;Natur;p;0;9;9;1;p;1;0.8866438999975799;002;ASHK62;2019_Nov_28_1438;iat_vr;59.95354798977434;
5;BAUM;Natur;p;1;0;10;0;p;1;0.9490756000013789;002;ASHK62;2019_Nov_28_1438;iat_vr;59.95354798977434;
5;WASSER;Natur;p;1;1;11;1;p;1;2.416557999997167;002;ASHK62;2019_Nov_28_1438;iat_vr;59.95354798977434;
5;GEBÄUDE;Gemacht;q;1;2;12;5;q;1;1.185966199998802;002;ASHK62;2019_Nov_28_1438;iat_vr;59.95354798977434;
5;STADT;Gemacht;q;1;3;13;6;q;1;0.5327455000006012;002;ASHK62;2019_Nov_28_1438;iat_vr;59.95354798977434;
5;STEIN;Natur;p;1;4;14;4;p;1;0.9816729999984091;002;ASHK62;2019_Nov_28_1438;iat_vr;59.95354798977434;
5;BLUME;Natur;p;1;5;15;2;p;1;3.596401999999216;002;ASHK62;2019_Nov_28_1438;iat_vr;59.95354798977434;
5;LAMPE;Gemacht;q;1;6;16;9;q;1;1.032049499997811;002;ASHK62;2019_Nov_28_1438;iat_vr;59.95354798977434;
5;TIER;Natur;p;1;7;17;3;p;1;1.3677783999992243;002;ASHK62;2019_Nov_28_1438;iat_vr;59.95354798977434;
5;KLEIDER;Gemacht;q;1;8;18;7;q;1;0.8986089000027278;002;ASHK62;2019_Nov_28_1438;iat_vr;59.95354798977434;
5;COMPUTER;Gemacht;q;1;9;19;8;q;1;0.7461371999997937;002;ASHK62;2019_Nov_28_1438;iat_vr;59.95354798977434;
;;;;;;;;;;;002;ASHK62;2019_Nov_28_1438;iat_vr;59.95354798977434;
6;STEIN;Natur;p;0;0;0;4;p;1;2.0466018000006443;002;ASHK62;2019_Nov_28_1438;iat_vr;59.95354798977434;
6;SCHLECHT;negativ;q;0;1;1;11;q;1;1.653601300000446;002;ASHK62;2019_Nov_28_1438;iat_vr;59.95354798977434;
6;STADT;Gemacht;q;0;2;2;6;q;1;0.9799841000021843;002;ASHK62;2019_Nov_28_1438;iat_vr;59.95354798977434;
6;SCHWACH;negativ;q;0;3;3;14;q;1;0.8848930999993172;002;ASHK62;2019_Nov_28_1438;iat_vr;59.95354798977434;
6;WASSER;Natur;p;0;4;4;1;p;1;2.163111800000479;002;ASHK62;2019_Nov_28_1438;iat_vr;59.95354798977434;
6;AUSGEZEICHNET;positiv;p;0;5;5;15;p;1;0.9149041000018769;002;ASHK62;2019_Nov_28_1438;iat_vr;59.95354798977434;
6;LAMPE;Gemacht;q;0;6;6;9;q;1;0.9154057000014291;002;ASHK62;2019_Nov_28_1438;iat_vr;59.95354798977434;
6;SCHLIMM;negativ;q;0;7;7;10;q;1;1.898083600000973;002;ASHK62;2019_Nov_28_1438;iat_vr;59.95354798977434;
6;GUT;positiv;p;0;8;8;19;q;0;0.9812832999996317;002;ASHK62;2019_Nov_28_1438;iat_vr;59.95354798977434;
6;GEBÄUDE;Gemacht;q;0;9;9;5;p;0;2.3684928999973636;002;ASHK62;2019_Nov_28_1438;iat_vr;59.95354798977434;
6;TIER;Natur;p;0;10;10;3;p;1;3.384717599998112;002;ASHK62;2019_Nov_28_1438;iat_vr;59.95354798977434;
6;BLUME;Natur;p;0;11;11;2;p;1;1.014624300001742;002;ASHK62;2019_Nov_28_1438;iat_vr;59.95354798977434;
6;NEGATIV;negativ;q;0;12;12;12;q;1;1.418933199998719;002;ASHK62;2019_Nov_28_1438;iat_vr;59.95354798977434;
6;POSITIV;positiv;p;0;13;13;18;p;1;1.581689099999494;002;ASHK62;2019_Nov_28_1438;iat_vr;59.95354798977434;
6;KLEIDER;Gemacht;q;0;14;14;7;q;1;4.201956400000199;002;ASHK62;2019_Nov_28_1438;iat_vr;59.95354798977434;
6;BAUM;Natur;p;0;15;15;0;q;0;3.8519938999997976;002;ASHK62;2019_Nov_28_1438;iat_vr;59.95354798977434;
6;HERVORRAGEND;positiv;p;0;16;16;17;p;1;4.243240499999956;002;ASHK62;2019_Nov_28_1438;iat_vr;59.95354798977434;
6;COMPUTER;Gemacht;q;0;17;17;8;q;1;1.2000179999995453;002;ASHK62;2019_Nov_28_1438;iat_vr;59.95354798977434;
6;EINWANDFREI;positiv;p;0;18;18;16;p;1;1.5842152999975951;002;ASHK62;2019_Nov_28_1438;iat_vr;59.95354798977434;
6;SCHÄDLICH;negativ;q;0;19;19;13;q;1;0.9139701999993122;002;ASHK62;2019_Nov_28_1438;iat_vr;59.95354798977434;
;;;;;;;;;;;002;ASHK62;2019_Nov_28_1438;iat_vr;59.95354798977434;
7;TIER;Natur;p;0;0;0;3;p;1;4.041962800001784;002;ASHK62;2019_Nov_28_1438;iat_vr;59.95354798977434;
7;EINWANDFREI;positiv;p;0;1;1;16;p;1;0.9631074999997509;002;ASHK62;2019_Nov_28_1438;iat_vr;59.95354798977434;
7;WASSER;Natur;p;0;2;2;1;p;1;0.9316548999995575;002;ASHK62;2019_Nov_28_1438;iat_vr;59.95354798977434;
7;BAUM;Natur;p;0;3;3;0;p;1;0.8654530000021623;002;ASHK62;2019_Nov_28_1438;iat_vr;59.95354798977434;
7;HERVORRAGEND;positiv;p;0;4;4;17;p;1;0.7448470999988785;002;ASHK62;2019_Nov_28_1438;iat_vr;59.95354798977434;
7;GUT;positiv;p;0;5;5;19;p;1;0.7649946000019554;002;ASHK62;2019_Nov_28_1438;iat_vr;59.95354798977434;
7;LAMPE;Gemacht;q;0;6;6;9;q;1;1.0162428999974509;002;ASHK62;2019_Nov_28_1438;iat_vr;59.95354798977434;
7;COMPUTER;Gemacht;q;0;7;7;8;q;1;0.7853813000001537;002;ASHK62;2019_Nov_28_1438;iat_vr;59.95354798977434;
7;NEGATIV;negativ;q;0;8;8;12;q;1;0.7796163999992132;002;ASHK62;2019_Nov_28_1438;iat_vr;59.95354798977434;
7;SCHÄDLICH;negativ;q;0;9;9;13;q;1;0.6962476999979117;002;ASHK62;2019_Nov_28_1438;iat_vr;59.95354798977434;
7;AUSGEZEICHNET;positiv;p;0;10;10;15;p;1;1.002684600000066;002;ASHK62;2019_Nov_28_1438;iat_vr;59.95354798977434;
7;SCHLIMM;negativ;q;0;11;11;10;q;1;1.2179201999970246;002;ASHK62;2019_Nov_28_1438;iat_vr;59.95354798977434;
7;BLUME;Natur;p;0;12;12;2;p;1;1.0997417999969912;002;ASHK62;2019_Nov_28_1438;iat_vr;59.95354798977434;
7;SCHLECHT;negativ;q;0;13;13;11;q;1;0.7961542000011832;002;ASHK62;2019_Nov_28_1438;iat_vr;59.95354798977434;
7;SCHWACH;negativ;q;0;14;14;14;q;1;0.8852165999996942;002;ASHK62;2019_Nov_28_1438;iat_vr;59.95354798977434;
7;GEBÄUDE;Gemacht;q;0;15;15;5;q;1;1.3979281000029005;002;ASHK62;2019_Nov_28_1438;iat_vr;59.95354798977434;
7;STADT;Gemacht;q;0;16;16;6;q;1;0.8112804000011238;002;ASHK62;2019_Nov_28_1438;iat_vr;59.95354798977434;
7;KLEIDER;Gemacht;q;0;17;17;7;q;1;0.7172164000003249;002;ASHK62;2019_Nov_28_1438;iat_vr;59.95354798977434;
7;POSITIV;positiv;p;0;18;18;18;p;1;0.9498710000007122;002;ASHK62;2019_Nov_28_1438;iat_vr;59.95354798977434;
7;STEIN;Natur;p;0;19;19;4;p;1;1.1813103000022238;002;ASHK62;2019_Nov_28_1438;iat_vr;59.95354798977434;
7;KLEIDER;Gemacht;q;1;0;20;7;q;1;0.966928599998937;002;ASHK62;2019_Nov_28_1438;iat_vr;59.95354798977434;
7;SCHÄDLICH;negativ;q;1;1;21;13;q;1;0.8692946999981359;002;ASHK62;2019_Nov_28_1438;iat_vr;59.95354798977434;
7;GUT;positiv;p;1;2;22;19;p;1;1.3654758000011498;002;ASHK62;2019_Nov_28_1438;iat_vr;59.95354798977434;
7;NEGATIV;negativ;q;1;3;23;12;q;1;0.8928895999997621;002;ASHK62;2019_Nov_28_1438;iat_vr;59.95354798977434;
7;TIER;Natur;p;1;4;24;3;p;1;0.9650204000026861;002;ASHK62;2019_Nov_28_1438;iat_vr;59.95354798977434;
7;WASSER;Natur;p;1;5;25;1;p;1;0.8470682000006491;002;ASHK62;2019_Nov_28_1438;iat_vr;59.95354798977434;
7;SCHLECHT;negativ;q;1;6;26;11;q;1;0.9836488000000827;002;ASHK62;2019_Nov_28_1438;iat_vr;59.95354798977434;
7;POSITIV;positiv;p;1;7;27;18;p;1;0.8995868999991217;002;ASHK62;2019_Nov_28_1438;iat_vr;59.95354798977434;
7;COMPUTER;Gemacht;q;1;8;28;8;q;1;0.8950637000016286;002;ASHK62;2019_Nov_28_1438;iat_vr;59.95354798977434;
7;EINWANDFREI;positiv;p;1;9;29;16;p;1;1.043121599999722;002;ASHK62;2019_Nov_28_1438;iat_vr;59.95354798977434;
7;BLUME;Natur;p;1;10;30;2;p;1;1.7957602999995288;002;ASHK62;2019_Nov_28_1438;iat_vr;59.95354798977434;
7;SCHLIMM;negativ;q;1;11;31;10;q;1;0.7485540000016044;002;ASHK62;2019_Nov_28_1438;iat_vr;59.95354798977434;
7;SCHWACH;negativ;q;1;12;32;14;q;1;0.9521124999992026;002;ASHK62;2019_Nov_28_1438;iat_vr;59.95354798977434;
7;AUSGEZEICHNET;positiv;p;1;13;33;15;p;1;0.917897899998934;002;ASHK62;2019_Nov_28_1438;iat_vr;59.95354798977434;
7;LAMPE;Gemacht;q;1;14;34;9;q;1;1.2696286999998847;002;ASHK62;2019_Nov_28_1438;iat_vr;59.95354798977434;
7;HERVORRAGEND;positiv;p;1;15;35;17;p;1;0.7955645000001823;002;ASHK62;2019_Nov_28_1438;iat_vr;59.95354798977434;
7;STADT;Gemacht;q;1;16;36;6;q;1;0.7634098999988055;002;ASHK62;2019_Nov_28_1438;iat_vr;59.95354798977434;
7;STEIN;Natur;p;1;17;37;4;p;1;0.9190572000006796;002;ASHK62;2019_Nov_28_1438;iat_vr;59.95354798977434;
7;GEBÄUDE;Gemacht;q;1;18;38;5;q;1;0.735585300000821;002;ASHK62;2019_Nov_28_1438;iat_vr;59.95354798977434;
7;BAUM;Natur;p;1;19;39;0;p;1;0.8986837999982527;002;ASHK62;2019_Nov_28_1438;iat_vr;59.95354798977434;
;;;;;;;;;;;002;ASHK62;2019_Nov_28_1438;iat_vr;59.95354798977434;
