Block;Word;Category;CorrResp;trials.thisRepN;trials.thisTrialN;trials.thisN;trials.thisIndex;key_resp_2.keys;key_resp_2.corr;key_resp_2.rt;session;participant;date;expName;frameRate;
1;BLUME;Natur;q;0;0;0;2;q;1;0.6918751999910455;002;ASLB95;2019_Nov_29_1422;iat_vr;59.92319045210683;
1;STEIN;Natur;q;0;1;1;4;p;0;0.5520082000002731;002;ASLB95;2019_Nov_29_1422;iat_vr;59.92319045210683;
1;KLEIDER;Gemacht;p;0;2;2;7;p;1;0.917906699993182;002;ASLB95;2019_Nov_29_1422;iat_vr;59.92319045210683;
1;COMPUTER;Gemacht;p;0;3;3;8;p;1;0.41866149999259505;002;ASLB95;2019_Nov_29_1422;iat_vr;59.92319045210683;
1;BAUM;Natur;q;0;4;4;0;q;1;0.5989732000016375;002;ASLB95;2019_Nov_29_1422;iat_vr;59.92319045210683;
1;STADT;Gemacht;p;0;5;5;6;q;0;0.5339267999952426;002;ASLB95;2019_Nov_29_1422;iat_vr;59.92319045210683;
1;LAMPE;Gemacht;p;0;6;6;9;p;1;2.2855814000067767;002;ASLB95;2019_Nov_29_1422;iat_vr;59.92319045210683;
1;TIER;Natur;q;0;7;7;3;q;1;0.5800061000045389;002;ASLB95;2019_Nov_29_1422;iat_vr;59.92319045210683;
1;GEBÄUDE;Gemacht;p;0;8;8;5;p;1;0.5725514000077965;002;ASLB95;2019_Nov_29_1422;iat_vr;59.92319045210683;
1;WASSER;Natur;q;0;9;9;1;q;1;0.5256128999899374;002;ASLB95;2019_Nov_29_1422;iat_vr;59.92319045210683;
1;KLEIDER;Gemacht;p;1;0;10;7;p;1;0.5506160999939311;002;ASLB95;2019_Nov_29_1422;iat_vr;59.92319045210683;
1;WASSER;Natur;q;1;1;11;1;q;1;0.4806854999915231;002;ASLB95;2019_Nov_29_1422;iat_vr;59.92319045210683;
1;TIER;Natur;q;1;2;12;3;q;1;0.49706069999956526;002;ASLB95;2019_Nov_29_1422;iat_vr;59.92319045210683;
1;LAMPE;Gemacht;p;1;3;13;9;p;1;0.5334861000010278;002;ASLB95;2019_Nov_29_1422;iat_vr;59.92319045210683;
1;BAUM;Natur;q;1;4;14;0;q;1;0.5653189000004204;002;ASLB95;2019_Nov_29_1422;iat_vr;59.92319045210683;
1;STADT;Gemacht;p;1;5;15;6;p;1;0.7638326000014786;002;ASLB95;2019_Nov_29_1422;iat_vr;59.92319045210683;
1;BLUME;Natur;q;1;6;16;2;q;1;0.5478608999983408;002;ASLB95;2019_Nov_29_1422;iat_vr;59.92319045210683;
1;STEIN;Natur;q;1;7;17;4;q;1;0.5333206000068458;002;ASLB95;2019_Nov_29_1422;iat_vr;59.92319045210683;
1;GEBÄUDE;Gemacht;p;1;8;18;5;p;1;0.5514485000021523;002;ASLB95;2019_Nov_29_1422;iat_vr;59.92319045210683;
1;COMPUTER;Gemacht;p;1;9;19;8;p;1;0.4793487999995705;002;ASLB95;2019_Nov_29_1422;iat_vr;59.92319045210683;
;;;;;;;;;;;002;ASLB95;2019_Nov_29_1422;iat_vr;59.92319045210683;
2;SCHLIMM;negativ;q;0;0;0;0;q;1;1.7409177999943495;002;ASLB95;2019_Nov_29_1422;iat_vr;59.92319045210683;
2;SCHWACH;negativ;q;0;1;1;4;q;1;0.568237900006352;002;ASLB95;2019_Nov_29_1422;iat_vr;59.92319045210683;
2;HERVORRAGEND;positiv;p;0;2;2;7;q;0;0.5238281999918399;002;ASLB95;2019_Nov_29_1422;iat_vr;59.92319045210683;
2;SCHÄDLICH;negativ;q;0;3;3;3;q;1;0.7296678999991855;002;ASLB95;2019_Nov_29_1422;iat_vr;59.92319045210683;
2;GUT;positiv;p;0;4;4;9;p;1;0.49561690000700764;002;ASLB95;2019_Nov_29_1422;iat_vr;59.92319045210683;
2;EINWANDFREI;positiv;p;0;5;5;6;p;1;0.53563060000306;002;ASLB95;2019_Nov_29_1422;iat_vr;59.92319045210683;
2;SCHLECHT;negativ;q;0;6;6;1;q;1;0.7629090000118595;002;ASLB95;2019_Nov_29_1422;iat_vr;59.92319045210683;
2;NEGATIV;negativ;q;0;7;7;2;q;1;0.7118358000006992;002;ASLB95;2019_Nov_29_1422;iat_vr;59.92319045210683;
2;POSITIV;positiv;p;0;8;8;8;q;0;0.7020826999942074;002;ASLB95;2019_Nov_29_1422;iat_vr;59.92319045210683;
2;AUSGEZEICHNET;positiv;p;0;9;9;5;p;1;1.4404773999995086;002;ASLB95;2019_Nov_29_1422;iat_vr;59.92319045210683;
2;GUT;positiv;p;1;0;10;9;p;1;1.0167939999955706;002;ASLB95;2019_Nov_29_1422;iat_vr;59.92319045210683;
2;EINWANDFREI;positiv;p;1;1;11;6;p;1;0.7984253000031458;002;ASLB95;2019_Nov_29_1422;iat_vr;59.92319045210683;
2;SCHLIMM;negativ;q;1;2;12;0;q;1;0.6825970000063535;002;ASLB95;2019_Nov_29_1422;iat_vr;59.92319045210683;
2;AUSGEZEICHNET;positiv;p;1;3;13;5;p;1;0.8113714999926742;002;ASLB95;2019_Nov_29_1422;iat_vr;59.92319045210683;
2;SCHWACH;negativ;q;1;4;14;4;q;1;1.0476092000026256;002;ASLB95;2019_Nov_29_1422;iat_vr;59.92319045210683;
2;HERVORRAGEND;positiv;p;1;5;15;7;p;1;0.6449626000103308;002;ASLB95;2019_Nov_29_1422;iat_vr;59.92319045210683;
2;SCHLECHT;negativ;q;1;6;16;1;q;1;0.6506286000076216;002;ASLB95;2019_Nov_29_1422;iat_vr;59.92319045210683;
2;NEGATIV;negativ;q;1;7;17;2;q;1;0.9181840999954147;002;ASLB95;2019_Nov_29_1422;iat_vr;59.92319045210683;
2;SCHÄDLICH;negativ;q;1;8;18;3;q;1;0.5805332000018097;002;ASLB95;2019_Nov_29_1422;iat_vr;59.92319045210683;
2;POSITIV;positiv;p;1;9;19;8;p;1;1.3004093000054127;002;ASLB95;2019_Nov_29_1422;iat_vr;59.92319045210683;
;;;;;;;;;;;002;ASLB95;2019_Nov_29_1422;iat_vr;59.92319045210683;
3;HERVORRAGEND;positiv;p;0;0;0;7;p;1;1.2843817000102717;002;ASLB95;2019_Nov_29_1422;iat_vr;59.92319045210683;
3;AUSGEZEICHNET;positiv;p;0;1;1;5;p;1;1.0646097999997437;002;ASLB95;2019_Nov_29_1422;iat_vr;59.92319045210683;
3;STADT;Gemacht;p;0;2;2;16;p;1;0.5312830999901053;002;ASLB95;2019_Nov_29_1422;iat_vr;59.92319045210683;
3;POSITIV;positiv;p;0;3;3;8;p;1;0.6175460999947973;002;ASLB95;2019_Nov_29_1422;iat_vr;59.92319045210683;
3;COMPUTER;Gemacht;p;0;4;4;18;p;1;0.7474603000009665;002;ASLB95;2019_Nov_29_1422;iat_vr;59.92319045210683;
3;BLUME;Natur;q;0;5;5;12;q;1;0.6118509000079939;002;ASLB95;2019_Nov_29_1422;iat_vr;59.92319045210683;
3;KLEIDER;Gemacht;p;0;6;6;17;p;1;0.7288470000057714;002;ASLB95;2019_Nov_29_1422;iat_vr;59.92319045210683;
3;SCHLIMM;negativ;q;0;7;7;0;q;1;0.681470099996659;002;ASLB95;2019_Nov_29_1422;iat_vr;59.92319045210683;
3;BAUM;Natur;q;0;8;8;10;q;1;0.6357207000110066;002;ASLB95;2019_Nov_29_1422;iat_vr;59.92319045210683;
3;GUT;positiv;p;0;9;9;9;p;1;0.7310217000049306;002;ASLB95;2019_Nov_29_1422;iat_vr;59.92319045210683;
3;SCHÄDLICH;negativ;q;0;10;10;3;p;0;0.6945897999976296;002;ASLB95;2019_Nov_29_1422;iat_vr;59.92319045210683;
3;SCHLECHT;negativ;q;0;11;11;1;p;0;1.3282208000018727;002;ASLB95;2019_Nov_29_1422;iat_vr;59.92319045210683;
3;WASSER;Natur;q;0;12;12;11;q;1;0.9973723000002792;002;ASLB95;2019_Nov_29_1422;iat_vr;59.92319045210683;
3;GEBÄUDE;Gemacht;p;0;13;13;15;p;1;0.7811438000062481;002;ASLB95;2019_Nov_29_1422;iat_vr;59.92319045210683;
3;TIER;Natur;q;0;14;14;13;q;1;0.7186855000036303;002;ASLB95;2019_Nov_29_1422;iat_vr;59.92319045210683;
3;STEIN;Natur;q;0;15;15;14;q;1;0.5820764000091003;002;ASLB95;2019_Nov_29_1422;iat_vr;59.92319045210683;
3;NEGATIV;negativ;q;0;16;16;2;q;1;0.6638660000025993;002;ASLB95;2019_Nov_29_1422;iat_vr;59.92319045210683;
3;EINWANDFREI;positiv;p;0;17;17;6;p;1;0.8720233000058215;002;ASLB95;2019_Nov_29_1422;iat_vr;59.92319045210683;
3;LAMPE;Gemacht;p;0;18;18;19;p;1;0.653251800002181;002;ASLB95;2019_Nov_29_1422;iat_vr;59.92319045210683;
3;SCHWACH;negativ;q;0;19;19;4;p;0;0.6843977999960771;002;ASLB95;2019_Nov_29_1422;iat_vr;59.92319045210683;
;;;;;;;;;;;002;ASLB95;2019_Nov_29_1422;iat_vr;59.92319045210683;
4;WASSER;Natur;q;0;0;0;11;q;1;1.2387850999948569;002;ASLB95;2019_Nov_29_1422;iat_vr;59.92319045210683;
4;EINWANDFREI;positiv;p;0;1;1;6;p;1;1.062595399998827;002;ASLB95;2019_Nov_29_1422;iat_vr;59.92319045210683;
4;SCHLIMM;negativ;q;0;2;2;0;p;0;0.5341901999927359;002;ASLB95;2019_Nov_29_1422;iat_vr;59.92319045210683;
4;TIER;Natur;q;0;3;3;13;q;1;1.1995775999967009;002;ASLB95;2019_Nov_29_1422;iat_vr;59.92319045210683;
4;BAUM;Natur;q;0;4;4;10;q;1;0.6512610999925528;002;ASLB95;2019_Nov_29_1422;iat_vr;59.92319045210683;
4;AUSGEZEICHNET;positiv;p;0;5;5;5;p;1;0.7973697999987053;002;ASLB95;2019_Nov_29_1422;iat_vr;59.92319045210683;
4;NEGATIV;negativ;q;0;6;6;2;q;1;0.6326650999981211;002;ASLB95;2019_Nov_29_1422;iat_vr;59.92319045210683;
4;LAMPE;Gemacht;p;0;7;7;19;p;1;0.7109041000076104;002;ASLB95;2019_Nov_29_1422;iat_vr;59.92319045210683;
4;STEIN;Natur;q;0;8;8;14;q;1;0.6323337000067113;002;ASLB95;2019_Nov_29_1422;iat_vr;59.92319045210683;
4;KLEIDER;Gemacht;p;0;9;9;17;p;1;0.6973393999942346;002;ASLB95;2019_Nov_29_1422;iat_vr;59.92319045210683;
4;COMPUTER;Gemacht;p;0;10;10;18;p;1;0.5813200999982655;002;ASLB95;2019_Nov_29_1422;iat_vr;59.92319045210683;
4;SCHWACH;negativ;q;0;11;11;4;q;1;0.6958964999939781;002;ASLB95;2019_Nov_29_1422;iat_vr;59.92319045210683;
4;POSITIV;positiv;p;0;12;12;8;p;1;0.7811175999959232;002;ASLB95;2019_Nov_29_1422;iat_vr;59.92319045210683;
4;SCHLECHT;negativ;q;0;13;13;1;q;1;0.8347310999961337;002;ASLB95;2019_Nov_29_1422;iat_vr;59.92319045210683;
4;BLUME;Natur;q;0;14;14;12;q;1;0.6817748999892501;002;ASLB95;2019_Nov_29_1422;iat_vr;59.92319045210683;
4;GEBÄUDE;Gemacht;p;0;15;15;15;p;1;1.1020768000016687;002;ASLB95;2019_Nov_29_1422;iat_vr;59.92319045210683;
4;STADT;Gemacht;p;0;16;16;16;p;1;1.8297754999948665;002;ASLB95;2019_Nov_29_1422;iat_vr;59.92319045210683;
4;SCHÄDLICH;negativ;q;0;17;17;3;p;0;1.0806306000013137;002;ASLB95;2019_Nov_29_1422;iat_vr;59.92319045210683;
4;HERVORRAGEND;positiv;p;0;18;18;7;p;1;0.9781397000042489;002;ASLB95;2019_Nov_29_1422;iat_vr;59.92319045210683;
4;GUT;positiv;p;0;19;19;9;p;1;0.8670790000032866;002;ASLB95;2019_Nov_29_1422;iat_vr;59.92319045210683;
4;SCHÄDLICH;negativ;q;1;0;20;3;q;1;0.7480635999963852;002;ASLB95;2019_Nov_29_1422;iat_vr;59.92319045210683;
4;AUSGEZEICHNET;positiv;p;1;1;21;5;p;1;1.034493900006055;002;ASLB95;2019_Nov_29_1422;iat_vr;59.92319045210683;
4;GUT;positiv;p;1;2;22;9;p;1;1.3517907000059495;002;ASLB95;2019_Nov_29_1422;iat_vr;59.92319045210683;
4;WASSER;Natur;q;1;3;23;11;q;1;0.7986690999969142;002;ASLB95;2019_Nov_29_1422;iat_vr;59.92319045210683;
4;NEGATIV;negativ;q;1;4;24;2;q;1;0.6308425000024727;002;ASLB95;2019_Nov_29_1422;iat_vr;59.92319045210683;
4;TIER;Natur;q;1;5;25;13;q;1;0.6329854999930831;002;ASLB95;2019_Nov_29_1422;iat_vr;59.92319045210683;
4;BAUM;Natur;q;1;6;26;10;q;1;0.551302099993336;002;ASLB95;2019_Nov_29_1422;iat_vr;59.92319045210683;
4;KLEIDER;Gemacht;p;1;7;27;17;q;0;0.5812620999931823;002;ASLB95;2019_Nov_29_1422;iat_vr;59.92319045210683;
4;SCHWACH;negativ;q;1;8;28;4;q;1;0.8819734999997308;002;ASLB95;2019_Nov_29_1422;iat_vr;59.92319045210683;
4;HERVORRAGEND;positiv;p;1;9;29;7;p;1;0.6832386000023689;002;ASLB95;2019_Nov_29_1422;iat_vr;59.92319045210683;
4;BLUME;Natur;q;1;10;30;12;q;1;0.6315131000010297;002;ASLB95;2019_Nov_29_1422;iat_vr;59.92319045210683;
4;GEBÄUDE;Gemacht;p;1;11;31;15;p;1;0.7197428999934345;002;ASLB95;2019_Nov_29_1422;iat_vr;59.92319045210683;
4;STADT;Gemacht;p;1;12;32;16;p;1;0.765271299998858;002;ASLB95;2019_Nov_29_1422;iat_vr;59.92319045210683;
4;EINWANDFREI;positiv;p;1;13;33;6;p;1;0.6411093999922741;002;ASLB95;2019_Nov_29_1422;iat_vr;59.92319045210683;
4;POSITIV;positiv;p;1;14;34;8;p;1;0.6324676999938674;002;ASLB95;2019_Nov_29_1422;iat_vr;59.92319045210683;
4;SCHLIMM;negativ;q;1;15;35;0;q;1;0.5496746999997413;002;ASLB95;2019_Nov_29_1422;iat_vr;59.92319045210683;
4;SCHLECHT;negativ;q;1;16;36;1;q;1;0.5843171999877086;002;ASLB95;2019_Nov_29_1422;iat_vr;59.92319045210683;
4;COMPUTER;Gemacht;p;1;17;37;18;q;0;0.7312311999994563;002;ASLB95;2019_Nov_29_1422;iat_vr;59.92319045210683;
4;LAMPE;Gemacht;p;1;18;38;19;p;1;0.7673645000031684;002;ASLB95;2019_Nov_29_1422;iat_vr;59.92319045210683;
4;STEIN;Natur;q;1;19;39;14;q;1;0.7517853999888757;002;ASLB95;2019_Nov_29_1422;iat_vr;59.92319045210683;
;;;;;;;;;;;002;ASLB95;2019_Nov_29_1422;iat_vr;59.92319045210683;
5;WASSER;Natur;p;0;0;0;1;p;1;1.346447599993553;002;ASLB95;2019_Nov_29_1422;iat_vr;59.92319045210683;
5;GEBÄUDE;Gemacht;q;0;1;1;5;q;1;0.5852876999997534;002;ASLB95;2019_Nov_29_1422;iat_vr;59.92319045210683;
5;KLEIDER;Gemacht;q;0;2;2;7;p;0;0.8334403999906499;002;ASLB95;2019_Nov_29_1422;iat_vr;59.92319045210683;
5;BAUM;Natur;p;0;3;3;0;q;0;1.130177700004424;002;ASLB95;2019_Nov_29_1422;iat_vr;59.92319045210683;
5;COMPUTER;Gemacht;q;0;4;4;8;q;1;1.3507801000087056;002;ASLB95;2019_Nov_29_1422;iat_vr;59.92319045210683;
5;TIER;Natur;p;0;5;5;3;p;1;0.6483330000046408;002;ASLB95;2019_Nov_29_1422;iat_vr;59.92319045210683;
5;LAMPE;Gemacht;q;0;6;6;9;q;1;0.8825163000001339;002;ASLB95;2019_Nov_29_1422;iat_vr;59.92319045210683;
5;STADT;Gemacht;q;0;7;7;6;q;1;0.6678206000069622;002;ASLB95;2019_Nov_29_1422;iat_vr;59.92319045210683;
5;BLUME;Natur;p;0;8;8;2;p;1;0.5982324999931734;002;ASLB95;2019_Nov_29_1422;iat_vr;59.92319045210683;
5;STEIN;Natur;p;0;9;9;4;p;1;0.6798684999957914;002;ASLB95;2019_Nov_29_1422;iat_vr;59.92319045210683;
5;GEBÄUDE;Gemacht;q;1;0;10;5;q;1;0.7500072999973781;002;ASLB95;2019_Nov_29_1422;iat_vr;59.92319045210683;
5;COMPUTER;Gemacht;q;1;1;11;8;q;1;0.7504224000003887;002;ASLB95;2019_Nov_29_1422;iat_vr;59.92319045210683;
5;STADT;Gemacht;q;1;2;12;6;q;1;0.6688254000036977;002;ASLB95;2019_Nov_29_1422;iat_vr;59.92319045210683;
5;STEIN;Natur;p;1;3;13;4;q;0;0.6019199000002118;002;ASLB95;2019_Nov_29_1422;iat_vr;59.92319045210683;
5;WASSER;Natur;p;1;4;14;1;q;0;1.930462100004661;002;ASLB95;2019_Nov_29_1422;iat_vr;59.92319045210683;
5;BAUM;Natur;p;1;5;15;0;q;0;1.468952299997909;002;ASLB95;2019_Nov_29_1422;iat_vr;59.92319045210683;
5;KLEIDER;Gemacht;q;1;6;16;7;q;1;0.8985506000026362;002;ASLB95;2019_Nov_29_1422;iat_vr;59.92319045210683;
5;BLUME;Natur;p;1;7;17;2;p;1;0.7170976000052178;002;ASLB95;2019_Nov_29_1422;iat_vr;59.92319045210683;
5;TIER;Natur;p;1;8;18;3;p;1;0.8682699000055436;002;ASLB95;2019_Nov_29_1422;iat_vr;59.92319045210683;
5;LAMPE;Gemacht;q;1;9;19;9;q;1;0.6966582000022754;002;ASLB95;2019_Nov_29_1422;iat_vr;59.92319045210683;
;;;;;;;;;;;002;ASLB95;2019_Nov_29_1422;iat_vr;59.92319045210683;
6;TIER;Natur;p;0;0;0;3;p;1;0.9229899999918416;002;ASLB95;2019_Nov_29_1422;iat_vr;59.92319045210683;
6;LAMPE;Gemacht;q;0;1;1;9;q;1;1.3965380000008736;002;ASLB95;2019_Nov_29_1422;iat_vr;59.92319045210683;
6;BAUM;Natur;p;0;2;2;0;p;1;0.6500877999933437;002;ASLB95;2019_Nov_29_1422;iat_vr;59.92319045210683;
6;COMPUTER;Gemacht;q;0;3;3;8;q;1;0.6186960000050021;002;ASLB95;2019_Nov_29_1422;iat_vr;59.92319045210683;
6;SCHÄDLICH;negativ;q;0;4;4;13;q;1;1.266560699994443;002;ASLB95;2019_Nov_29_1422;iat_vr;59.92319045210683;
6;KLEIDER;Gemacht;q;0;5;5;7;q;1;0.6190620000124909;002;ASLB95;2019_Nov_29_1422;iat_vr;59.92319045210683;
6;GEBÄUDE;Gemacht;q;0;6;6;5;q;1;0.7140100999968126;002;ASLB95;2019_Nov_29_1422;iat_vr;59.92319045210683;
6;GUT;positiv;p;0;7;7;19;p;1;0.5503625999990618;002;ASLB95;2019_Nov_29_1422;iat_vr;59.92319045210683;
6;EINWANDFREI;positiv;p;0;8;8;16;p;1;0.612424099992495;002;ASLB95;2019_Nov_29_1422;iat_vr;59.92319045210683;
6;AUSGEZEICHNET;positiv;p;0;9;9;15;p;1;0.5351324000075692;002;ASLB95;2019_Nov_29_1422;iat_vr;59.92319045210683;
6;WASSER;Natur;p;0;10;10;1;p;1;0.5979697000002488;002;ASLB95;2019_Nov_29_1422;iat_vr;59.92319045210683;
6;STADT;Gemacht;q;0;11;11;6;q;1;0.5989948000060394;002;ASLB95;2019_Nov_29_1422;iat_vr;59.92319045210683;
6;NEGATIV;negativ;q;0;12;12;12;q;1;0.7521940999868093;002;ASLB95;2019_Nov_29_1422;iat_vr;59.92319045210683;
6;SCHWACH;negativ;q;0;13;13;14;q;1;0.6321045000076992;002;ASLB95;2019_Nov_29_1422;iat_vr;59.92319045210683;
6;BLUME;Natur;p;0;14;14;2;p;1;0.8153194000042276;002;ASLB95;2019_Nov_29_1422;iat_vr;59.92319045210683;
6;SCHLECHT;negativ;q;0;15;15;11;q;1;0.7333402999938698;002;ASLB95;2019_Nov_29_1422;iat_vr;59.92319045210683;
6;HERVORRAGEND;positiv;p;0;16;16;17;p;1;0.533923800001503;002;ASLB95;2019_Nov_29_1422;iat_vr;59.92319045210683;
6;POSITIV;positiv;p;0;17;17;18;p;1;0.44291789999988396;002;ASLB95;2019_Nov_29_1422;iat_vr;59.92319045210683;
6;SCHLIMM;negativ;q;0;18;18;10;q;1;0.6170833999931347;002;ASLB95;2019_Nov_29_1422;iat_vr;59.92319045210683;
6;STEIN;Natur;p;0;19;19;4;q;0;0.767162999996799;002;ASLB95;2019_Nov_29_1422;iat_vr;59.92319045210683;
;;;;;;;;;;;002;ASLB95;2019_Nov_29_1422;iat_vr;59.92319045210683;
7;SCHLIMM;negativ;q;0;0;0;10;q;1;1.081944099991233;002;ASLB95;2019_Nov_29_1422;iat_vr;59.92319045210683;
7;EINWANDFREI;positiv;p;0;1;1;16;p;1;0.7301861000014469;002;ASLB95;2019_Nov_29_1422;iat_vr;59.92319045210683;
7;SCHWACH;negativ;q;0;2;2;14;q;1;0.6856604000058724;002;ASLB95;2019_Nov_29_1422;iat_vr;59.92319045210683;
7;SCHLECHT;negativ;q;0;3;3;11;q;1;0.5348683000047458;002;ASLB95;2019_Nov_29_1422;iat_vr;59.92319045210683;
7;HERVORRAGEND;positiv;p;0;4;4;17;p;1;0.7624512000038521;002;ASLB95;2019_Nov_29_1422;iat_vr;59.92319045210683;
7;GEBÄUDE;Gemacht;q;0;5;5;5;q;1;0.763802499990561;002;ASLB95;2019_Nov_29_1422;iat_vr;59.92319045210683;
7;STADT;Gemacht;q;0;6;6;6;q;1;0.6031365999951959;002;ASLB95;2019_Nov_29_1422;iat_vr;59.92319045210683;
7;BAUM;Natur;p;0;7;7;0;p;1;0.5671862000017427;002;ASLB95;2019_Nov_29_1422;iat_vr;59.92319045210683;
7;COMPUTER;Gemacht;q;0;8;8;8;q;1;0.5171824999997625;002;ASLB95;2019_Nov_29_1422;iat_vr;59.92319045210683;
7;KLEIDER;Gemacht;q;0;9;9;7;q;1;0.6504350999894086;002;ASLB95;2019_Nov_29_1422;iat_vr;59.92319045210683;
7;BLUME;Natur;p;0;10;10;2;p;1;0.9174201999994693;002;ASLB95;2019_Nov_29_1422;iat_vr;59.92319045210683;
7;WASSER;Natur;p;0;11;11;1;p;1;0.5997073000035016;002;ASLB95;2019_Nov_29_1422;iat_vr;59.92319045210683;
7;AUSGEZEICHNET;positiv;p;0;12;12;15;p;1;0.6939727999997558;002;ASLB95;2019_Nov_29_1422;iat_vr;59.92319045210683;
7;SCHÄDLICH;negativ;q;0;13;13;13;q;1;0.5941760999994585;002;ASLB95;2019_Nov_29_1422;iat_vr;59.92319045210683;
7;NEGATIV;negativ;q;0;14;14;12;q;1;0.652210100000957;002;ASLB95;2019_Nov_29_1422;iat_vr;59.92319045210683;
7;GUT;positiv;p;0;15;15;19;p;1;0.7316465000039898;002;ASLB95;2019_Nov_29_1422;iat_vr;59.92319045210683;
7;LAMPE;Gemacht;q;0;16;16;9;q;1;0.6970901999884518;002;ASLB95;2019_Nov_29_1422;iat_vr;59.92319045210683;
7;STEIN;Natur;p;0;17;17;4;p;1;0.7819882999901893;002;ASLB95;2019_Nov_29_1422;iat_vr;59.92319045210683;
7;POSITIV;positiv;p;0;18;18;18;p;1;0.6469826999964425;002;ASLB95;2019_Nov_29_1422;iat_vr;59.92319045210683;
7;TIER;Natur;p;0;19;19;3;p;1;1.0007704000017839;002;ASLB95;2019_Nov_29_1422;iat_vr;59.92319045210683;
7;WASSER;Natur;p;1;0;20;1;p;1;0.5637668999988819;002;ASLB95;2019_Nov_29_1422;iat_vr;59.92319045210683;
7;KLEIDER;Gemacht;q;1;1;21;7;p;0;0.7142314999946393;002;ASLB95;2019_Nov_29_1422;iat_vr;59.92319045210683;
7;AUSGEZEICHNET;positiv;p;1;2;22;15;p;1;1.0970831000013277;002;ASLB95;2019_Nov_29_1422;iat_vr;59.92319045210683;
7;SCHÄDLICH;negativ;q;1;3;23;13;q;1;0.8170879000099376;002;ASLB95;2019_Nov_29_1422;iat_vr;59.92319045210683;
7;SCHLECHT;negativ;q;1;4;24;11;q;1;0.6840253999980632;002;ASLB95;2019_Nov_29_1422;iat_vr;59.92319045210683;
7;GEBÄUDE;Gemacht;q;1;5;25;5;q;1;0.6133587000076659;002;ASLB95;2019_Nov_29_1422;iat_vr;59.92319045210683;
7;GUT;positiv;p;1;6;26;19;p;1;0.7012500999990152;002;ASLB95;2019_Nov_29_1422;iat_vr;59.92319045210683;
7;EINWANDFREI;positiv;p;1;7;27;16;p;1;0.5793482000008225;002;ASLB95;2019_Nov_29_1422;iat_vr;59.92319045210683;
7;BAUM;Natur;p;1;8;28;0;p;1;0.6463513000053354;002;ASLB95;2019_Nov_29_1422;iat_vr;59.92319045210683;
7;TIER;Natur;p;1;9;29;3;p;1;0.5318897999968613;002;ASLB95;2019_Nov_29_1422;iat_vr;59.92319045210683;
7;SCHLIMM;negativ;q;1;10;30;10;q;1;0.6315352999954484;002;ASLB95;2019_Nov_29_1422;iat_vr;59.92319045210683;
7;STADT;Gemacht;q;1;11;31;6;q;1;0.7691005000087898;002;ASLB95;2019_Nov_29_1422;iat_vr;59.92319045210683;
7;NEGATIV;negativ;q;1;12;32;12;p;0;0.661812700011069;002;ASLB95;2019_Nov_29_1422;iat_vr;59.92319045210683;
7;BLUME;Natur;p;1;13;33;2;p;1;0.8828264999901876;002;ASLB95;2019_Nov_29_1422;iat_vr;59.92319045210683;
7;HERVORRAGEND;positiv;p;1;14;34;17;p;1;0.6325586999882944;002;ASLB95;2019_Nov_29_1422;iat_vr;59.92319045210683;
7;POSITIV;positiv;p;1;15;35;18;p;1;0.5621150999941165;002;ASLB95;2019_Nov_29_1422;iat_vr;59.92319045210683;
7;LAMPE;Gemacht;q;1;16;36;9;q;1;1.0023651999945287;002;ASLB95;2019_Nov_29_1422;iat_vr;59.92319045210683;
7;SCHWACH;negativ;q;1;17;37;14;p;0;0.8794258999987505;002;ASLB95;2019_Nov_29_1422;iat_vr;59.92319045210683;
7;COMPUTER;Gemacht;q;1;18;38;8;q;1;0.9854729000071529;002;ASLB95;2019_Nov_29_1422;iat_vr;59.92319045210683;
7;STEIN;Natur;p;1;19;39;4;p;1;0.783444699991378;002;ASLB95;2019_Nov_29_1422;iat_vr;59.92319045210683;
;;;;;;;;;;;002;ASLB95;2019_Nov_29_1422;iat_vr;59.92319045210683;
