Block;Word;Category;CorrResp;trials.thisRepN;trials.thisTrialN;trials.thisN;trials.thisIndex;key_resp_2.keys;key_resp_2.corr;key_resp_2.rt;session;participant;date;expName;frameRate;
1;STADT;Gemacht;p;0;0;0;6;p;1;1.2385950999887427;001;ASLK98;2019_Nov_29_1623;iat_vr;60.01125811041845;
1;STEIN;Natur;q;0;1;1;4;q;1;7.499365600000601;001;ASLK98;2019_Nov_29_1623;iat_vr;60.01125811041845;
1;BAUM;Natur;q;0;2;2;0;q;1;0.750451100000646;001;ASLK98;2019_Nov_29_1623;iat_vr;60.01125811041845;
1;BLUME;Natur;q;0;3;3;2;q;1;0.668824799999129;001;ASLK98;2019_Nov_29_1623;iat_vr;60.01125811041845;
1;WASSER;Natur;q;0;4;4;1;q;1;1.1252106999891112;001;ASLK98;2019_Nov_29_1623;iat_vr;60.01125811041845;
1;TIER;Natur;q;0;5;5;3;q;1;1.6967361999995774;001;ASLK98;2019_Nov_29_1623;iat_vr;60.01125811041845;
1;KLEIDER;Gemacht;p;0;6;6;7;p;1;0.873402500001248;001;ASLK98;2019_Nov_29_1623;iat_vr;60.01125811041845;
1;GEBÄUDE;Gemacht;p;0;7;7;5;p;1;0.8909107999934349;001;ASLK98;2019_Nov_29_1623;iat_vr;60.01125811041845;
1;LAMPE;Gemacht;p;0;8;8;9;p;1;0.8465049000078579;001;ASLK98;2019_Nov_29_1623;iat_vr;60.01125811041845;
1;COMPUTER;Gemacht;p;0;9;9;8;p;1;0.6330453999980818;001;ASLK98;2019_Nov_29_1623;iat_vr;60.01125811041845;
1;KLEIDER;Gemacht;p;1;0;10;7;p;1;0.5981605999986641;001;ASLK98;2019_Nov_29_1623;iat_vr;60.01125811041845;
1;STADT;Gemacht;p;1;1;11;6;p;1;0.6130497000121977;001;ASLK98;2019_Nov_29_1623;iat_vr;60.01125811041845;
1;LAMPE;Gemacht;p;1;2;12;9;p;1;0.7151979000045685;001;ASLK98;2019_Nov_29_1623;iat_vr;60.01125811041845;
1;TIER;Natur;q;1;3;13;3;q;1;0.5519524999981513;001;ASLK98;2019_Nov_29_1623;iat_vr;60.01125811041845;
1;WASSER;Natur;q;1;4;14;1;q;1;0.5967929000034928;001;ASLK98;2019_Nov_29_1623;iat_vr;60.01125811041845;
1;GEBÄUDE;Gemacht;p;1;5;15;5;p;1;0.6633563000068534;001;ASLK98;2019_Nov_29_1623;iat_vr;60.01125811041845;
1;BAUM;Natur;q;1;6;16;0;q;1;0.5822442000062438;001;ASLK98;2019_Nov_29_1623;iat_vr;60.01125811041845;
1;STEIN;Natur;q;1;7;17;4;q;1;0.8483137000002898;001;ASLK98;2019_Nov_29_1623;iat_vr;60.01125811041845;
1;BLUME;Natur;q;1;8;18;2;q;1;0.6315582999959588;001;ASLK98;2019_Nov_29_1623;iat_vr;60.01125811041845;
1;COMPUTER;Gemacht;p;1;9;19;8;p;1;0.6808737000101246;001;ASLK98;2019_Nov_29_1623;iat_vr;60.01125811041845;
;;;;;;;;;;;001;ASLK98;2019_Nov_29_1623;iat_vr;60.01125811041845;
2;SCHLIMM;negativ;q;0;0;0;0;q;1;0.9469508999900427;001;ASLK98;2019_Nov_29_1623;iat_vr;60.01125811041845;
2;EINWANDFREI;positiv;p;0;1;1;6;p;1;1.2897222000028705;001;ASLK98;2019_Nov_29_1623;iat_vr;60.01125811041845;
2;SCHLECHT;negativ;q;0;2;2;1;q;1;0.6499806000065291;001;ASLK98;2019_Nov_29_1623;iat_vr;60.01125811041845;
2;SCHÄDLICH;negativ;q;0;3;3;3;q;1;0.8113812999945367;001;ASLK98;2019_Nov_29_1623;iat_vr;60.01125811041845;
2;HERVORRAGEND;positiv;p;0;4;4;7;p;1;0.6590875999972923;001;ASLK98;2019_Nov_29_1623;iat_vr;60.01125811041845;
2;NEGATIV;negativ;q;0;5;5;2;q;1;0.6605562000040663;001;ASLK98;2019_Nov_29_1623;iat_vr;60.01125811041845;
2;AUSGEZEICHNET;positiv;p;0;6;6;5;p;1;0.7540908999944804;001;ASLK98;2019_Nov_29_1623;iat_vr;60.01125811041845;
2;SCHWACH;negativ;q;0;7;7;4;q;1;0.635771700006444;001;ASLK98;2019_Nov_29_1623;iat_vr;60.01125811041845;
2;GUT;positiv;p;0;8;8;9;p;1;0.6812566000007791;001;ASLK98;2019_Nov_29_1623;iat_vr;60.01125811041845;
2;POSITIV;positiv;p;0;9;9;8;p;1;0.6654321999958484;001;ASLK98;2019_Nov_29_1623;iat_vr;60.01125811041845;
2;SCHLECHT;negativ;q;1;0;10;1;q;1;0.5809936000005109;001;ASLK98;2019_Nov_29_1623;iat_vr;60.01125811041845;
2;AUSGEZEICHNET;positiv;p;1;1;11;5;p;1;0.6176095999981044;001;ASLK98;2019_Nov_29_1623;iat_vr;60.01125811041845;
2;HERVORRAGEND;positiv;p;1;2;12;7;p;1;0.7122908000019379;001;ASLK98;2019_Nov_29_1623;iat_vr;60.01125811041845;
2;EINWANDFREI;positiv;p;1;3;13;6;p;1;0.6632318000047235;001;ASLK98;2019_Nov_29_1623;iat_vr;60.01125811041845;
2;SCHLIMM;negativ;q;1;4;14;0;q;1;0.6944695999991382;001;ASLK98;2019_Nov_29_1623;iat_vr;60.01125811041845;
2;GUT;positiv;p;1;5;15;9;p;1;0.6305777999950806;001;ASLK98;2019_Nov_29_1623;iat_vr;60.01125811041845;
2;POSITIV;positiv;p;1;6;16;8;p;1;0.6475457000051392;001;ASLK98;2019_Nov_29_1623;iat_vr;60.01125811041845;
2;NEGATIV;negativ;q;1;7;17;2;q;1;0.6315962000080617;001;ASLK98;2019_Nov_29_1623;iat_vr;60.01125811041845;
2;SCHÄDLICH;negativ;q;1;8;18;3;q;1;0.7602624999999534;001;ASLK98;2019_Nov_29_1623;iat_vr;60.01125811041845;
2;SCHWACH;negativ;q;1;9;19;4;q;1;0.6303555999911623;001;ASLK98;2019_Nov_29_1623;iat_vr;60.01125811041845;
;;;;;;;;;;;001;ASLK98;2019_Nov_29_1623;iat_vr;60.01125811041845;
3;TIER;Natur;q;0;0;0;13;q;1;1.0001405000075465;001;ASLK98;2019_Nov_29_1623;iat_vr;60.01125811041845;
3;SCHÄDLICH;negativ;q;0;1;1;3;q;1;0.8763321000005817;001;ASLK98;2019_Nov_29_1623;iat_vr;60.01125811041845;
3;BAUM;Natur;q;0;2;2;10;q;1;0.8486376999935601;001;ASLK98;2019_Nov_29_1623;iat_vr;60.01125811041845;
3;GEBÄUDE;Gemacht;p;0;3;3;15;p;1;0.8109725999966031;001;ASLK98;2019_Nov_29_1623;iat_vr;60.01125811041845;
3;STEIN;Natur;q;0;4;4;14;q;1;0.8985757000045851;001;ASLK98;2019_Nov_29_1623;iat_vr;60.01125811041845;
3;COMPUTER;Gemacht;p;0;5;5;18;p;1;0.6467795000062324;001;ASLK98;2019_Nov_29_1623;iat_vr;60.01125811041845;
3;SCHWACH;negativ;q;0;6;6;4;q;1;0.7146969000023091;001;ASLK98;2019_Nov_29_1623;iat_vr;60.01125811041845;
3;SCHLIMM;negativ;q;0;7;7;0;q;1;0.814791900003911;001;ASLK98;2019_Nov_29_1623;iat_vr;60.01125811041845;
3;NEGATIV;negativ;q;0;8;8;2;q;1;0.6643170000024838;001;ASLK98;2019_Nov_29_1623;iat_vr;60.01125811041845;
3;POSITIV;positiv;p;0;9;9;8;p;1;0.6852168000041274;001;ASLK98;2019_Nov_29_1623;iat_vr;60.01125811041845;
3;EINWANDFREI;positiv;p;0;10;10;6;p;1;0.8967381000111345;001;ASLK98;2019_Nov_29_1623;iat_vr;60.01125811041845;
3;BLUME;Natur;q;0;11;11;12;q;1;0.7122986000031233;001;ASLK98;2019_Nov_29_1623;iat_vr;60.01125811041845;
3;HERVORRAGEND;positiv;p;0;12;12;7;p;1;1.6154837999929441;001;ASLK98;2019_Nov_29_1623;iat_vr;60.01125811041845;
3;LAMPE;Gemacht;p;0;13;13;19;p;1;0.8781719000107842;001;ASLK98;2019_Nov_29_1623;iat_vr;60.01125811041845;
3;STADT;Gemacht;p;0;14;14;16;p;1;0.7149360000039451;001;ASLK98;2019_Nov_29_1623;iat_vr;60.01125811041845;
3;GUT;positiv;p;0;15;15;9;p;1;1.5184537000022829;001;ASLK98;2019_Nov_29_1623;iat_vr;60.01125811041845;
3;KLEIDER;Gemacht;p;0;16;16;17;p;1;0.6306186000001617;001;ASLK98;2019_Nov_29_1623;iat_vr;60.01125811041845;
3;WASSER;Natur;q;0;17;17;11;q;1;0.6314847000030568;001;ASLK98;2019_Nov_29_1623;iat_vr;60.01125811041845;
3;AUSGEZEICHNET;positiv;p;0;18;18;5;p;1;0.6501072000100976;001;ASLK98;2019_Nov_29_1623;iat_vr;60.01125811041845;
3;SCHLECHT;negativ;q;0;19;19;1;q;1;0.7645856000017375;001;ASLK98;2019_Nov_29_1623;iat_vr;60.01125811041845;
;;;;;;;;;;;001;ASLK98;2019_Nov_29_1623;iat_vr;60.01125811041845;
4;SCHLIMM;negativ;q;0;0;0;0;q;1;0.7284281000029296;001;ASLK98;2019_Nov_29_1623;iat_vr;60.01125811041845;
4;EINWANDFREI;positiv;p;0;1;1;6;p;1;0.64606559999811;001;ASLK98;2019_Nov_29_1623;iat_vr;60.01125811041845;
4;SCHLECHT;negativ;q;0;2;2;1;q;1;0.647801699989941;001;ASLK98;2019_Nov_29_1623;iat_vr;60.01125811041845;
4;KLEIDER;Gemacht;p;0;3;3;17;p;1;1.063007100005052;001;ASLK98;2019_Nov_29_1623;iat_vr;60.01125811041845;
4;BAUM;Natur;q;0;4;4;10;q;1;0.5962894999975106;001;ASLK98;2019_Nov_29_1623;iat_vr;60.01125811041845;
4;BLUME;Natur;q;0;5;5;12;q;1;0.5989078999991762;001;ASLK98;2019_Nov_29_1623;iat_vr;60.01125811041845;
4;STEIN;Natur;q;0;6;6;14;q;1;0.5807269999932032;001;ASLK98;2019_Nov_29_1623;iat_vr;60.01125811041845;
4;HERVORRAGEND;positiv;p;0;7;7;7;p;1;0.6617970999941463;001;ASLK98;2019_Nov_29_1623;iat_vr;60.01125811041845;
4;GEBÄUDE;Gemacht;p;0;8;8;15;p;1;0.6620746999979019;001;ASLK98;2019_Nov_29_1623;iat_vr;60.01125811041845;
4;COMPUTER;Gemacht;p;0;9;9;18;p;1;0.7130908999970416;001;ASLK98;2019_Nov_29_1623;iat_vr;60.01125811041845;
4;SCHÄDLICH;negativ;q;0;10;10;3;q;1;0.5793153999984497;001;ASLK98;2019_Nov_29_1623;iat_vr;60.01125811041845;
4;TIER;Natur;q;0;11;11;13;q;1;0.6820976999879349;001;ASLK98;2019_Nov_29_1623;iat_vr;60.01125811041845;
4;WASSER;Natur;q;0;12;12;11;q;1;0.6168115999898873;001;ASLK98;2019_Nov_29_1623;iat_vr;60.01125811041845;
4;STADT;Gemacht;p;0;13;13;16;p;1;0.6308570999972289;001;ASLK98;2019_Nov_29_1623;iat_vr;60.01125811041845;
4;GUT;positiv;p;0;14;14;9;p;1;0.6829624999954831;001;ASLK98;2019_Nov_29_1623;iat_vr;60.01125811041845;
4;NEGATIV;negativ;q;0;15;15;2;q;1;0.5310212999902433;001;ASLK98;2019_Nov_29_1623;iat_vr;60.01125811041845;
4;LAMPE;Gemacht;p;0;16;16;19;q;0;0.6963144000037573;001;ASLK98;2019_Nov_29_1623;iat_vr;60.01125811041845;
4;SCHWACH;negativ;q;0;17;17;4;q;1;0.8475513000012143;001;ASLK98;2019_Nov_29_1623;iat_vr;60.01125811041845;
4;POSITIV;positiv;p;0;18;18;8;p;1;1.0148870999983046;001;ASLK98;2019_Nov_29_1623;iat_vr;60.01125811041845;
4;AUSGEZEICHNET;positiv;p;0;19;19;5;p;1;0.7789321999880485;001;ASLK98;2019_Nov_29_1623;iat_vr;60.01125811041845;
4;WASSER;Natur;q;1;0;20;11;q;1;0.6983371999958763;001;ASLK98;2019_Nov_29_1623;iat_vr;60.01125811041845;
4;HERVORRAGEND;positiv;p;1;1;21;7;p;1;0.7454126000084216;001;ASLK98;2019_Nov_29_1623;iat_vr;60.01125811041845;
4;GUT;positiv;p;1;2;22;9;p;1;0.6819456999946851;001;ASLK98;2019_Nov_29_1623;iat_vr;60.01125811041845;
4;GEBÄUDE;Gemacht;p;1;3;23;15;p;1;0.9480027999961749;001;ASLK98;2019_Nov_29_1623;iat_vr;60.01125811041845;
4;BLUME;Natur;q;1;4;24;12;q;1;0.8970057999977143;001;ASLK98;2019_Nov_29_1623;iat_vr;60.01125811041845;
4;SCHLIMM;negativ;q;1;5;25;0;q;1;1.0977008999907412;001;ASLK98;2019_Nov_29_1623;iat_vr;60.01125811041845;
4;SCHLECHT;negativ;q;1;6;26;1;q;1;0.7452745000045979;001;ASLK98;2019_Nov_29_1623;iat_vr;60.01125811041845;
4;SCHWACH;negativ;q;1;7;27;4;q;1;0.8810496000078274;001;ASLK98;2019_Nov_29_1623;iat_vr;60.01125811041845;
4;EINWANDFREI;positiv;p;1;8;28;6;p;1;0.7276151999976719;001;ASLK98;2019_Nov_29_1623;iat_vr;60.01125811041845;
4;AUSGEZEICHNET;positiv;p;1;9;29;5;p;1;0.9121964000078151;001;ASLK98;2019_Nov_29_1623;iat_vr;60.01125811041845;
4;STADT;Gemacht;p;1;10;30;16;p;1;0.8187719000125071;001;ASLK98;2019_Nov_29_1623;iat_vr;60.01125811041845;
4;KLEIDER;Gemacht;p;1;11;31;17;q;0;0.7792678999976488;001;ASLK98;2019_Nov_29_1623;iat_vr;60.01125811041845;
4;SCHÄDLICH;negativ;q;1;12;32;3;q;1;1.1633858999994118;001;ASLK98;2019_Nov_29_1623;iat_vr;60.01125811041845;
4;TIER;Natur;q;1;13;33;13;q;1;2.1281393000099342;001;ASLK98;2019_Nov_29_1623;iat_vr;60.01125811041845;
4;STEIN;Natur;q;1;14;34;14;q;1;0.6154869000019971;001;ASLK98;2019_Nov_29_1623;iat_vr;60.01125811041845;
4;COMPUTER;Gemacht;p;1;15;35;18;p;1;0.6953852000006009;001;ASLK98;2019_Nov_29_1623;iat_vr;60.01125811041845;
4;LAMPE;Gemacht;p;1;16;36;19;p;1;1.215270300002885;001;ASLK98;2019_Nov_29_1623;iat_vr;60.01125811041845;
4;POSITIV;positiv;p;1;17;37;8;p;1;0.677722000007634;001;ASLK98;2019_Nov_29_1623;iat_vr;60.01125811041845;
4;NEGATIV;negativ;q;1;18;38;2;q;1;0.714758999994956;001;ASLK98;2019_Nov_29_1623;iat_vr;60.01125811041845;
4;BAUM;Natur;q;1;19;39;10;q;1;1.219276699994225;001;ASLK98;2019_Nov_29_1623;iat_vr;60.01125811041845;
;;;;;;;;;;;001;ASLK98;2019_Nov_29_1623;iat_vr;60.01125811041845;
5;STEIN;Natur;p;0;0;0;4;p;1;1.7316540000028908;001;ASLK98;2019_Nov_29_1623;iat_vr;60.01125811041845;
5;LAMPE;Gemacht;q;0;1;1;9;q;1;1.2313249999861;001;ASLK98;2019_Nov_29_1623;iat_vr;60.01125811041845;
5;KLEIDER;Gemacht;q;0;2;2;7;q;1;0.7972348999901442;001;ASLK98;2019_Nov_29_1623;iat_vr;60.01125811041845;
5;BLUME;Natur;p;0;3;3;2;p;1;0.7129290000011679;001;ASLK98;2019_Nov_29_1623;iat_vr;60.01125811041845;
5;TIER;Natur;p;0;4;4;3;p;1;0.7990403000003425;001;ASLK98;2019_Nov_29_1623;iat_vr;60.01125811041845;
5;GEBÄUDE;Gemacht;q;0;5;5;5;q;1;1.097470799999428;001;ASLK98;2019_Nov_29_1623;iat_vr;60.01125811041845;
5;WASSER;Natur;p;0;6;6;1;p;1;0.7964849999989383;001;ASLK98;2019_Nov_29_1623;iat_vr;60.01125811041845;
5;BAUM;Natur;p;0;7;7;0;p;1;1.3831170000048587;001;ASLK98;2019_Nov_29_1623;iat_vr;60.01125811041845;
5;COMPUTER;Gemacht;q;0;8;8;8;q;1;0.5975743000017246;001;ASLK98;2019_Nov_29_1623;iat_vr;60.01125811041845;
5;STADT;Gemacht;q;0;9;9;6;q;1;1.7802994000085164;001;ASLK98;2019_Nov_29_1623;iat_vr;60.01125811041845;
5;GEBÄUDE;Gemacht;q;1;0;10;5;q;1;0.6671341000037501;001;ASLK98;2019_Nov_29_1623;iat_vr;60.01125811041845;
5;LAMPE;Gemacht;q;1;1;11;9;q;1;0.7194753999938257;001;ASLK98;2019_Nov_29_1623;iat_vr;60.01125811041845;
5;STADT;Gemacht;q;1;2;12;6;q;1;0.9020834999973886;001;ASLK98;2019_Nov_29_1623;iat_vr;60.01125811041845;
5;KLEIDER;Gemacht;q;1;3;13;7;p;0;0.7471451000019442;001;ASLK98;2019_Nov_29_1623;iat_vr;60.01125811041845;
5;WASSER;Natur;p;1;4;14;1;p;1;1.48215359999449;001;ASLK98;2019_Nov_29_1623;iat_vr;60.01125811041845;
5;STEIN;Natur;p;1;5;15;4;p;1;0.7303297000034945;001;ASLK98;2019_Nov_29_1623;iat_vr;60.01125811041845;
5;COMPUTER;Gemacht;q;1;6;16;8;q;1;0.6357315999921411;001;ASLK98;2019_Nov_29_1623;iat_vr;60.01125811041845;
5;BLUME;Natur;p;1;7;17;2;p;1;0.9128539000084857;001;ASLK98;2019_Nov_29_1623;iat_vr;60.01125811041845;
5;BAUM;Natur;p;1;8;18;0;p;1;0.7149953000043752;001;ASLK98;2019_Nov_29_1623;iat_vr;60.01125811041845;
5;TIER;Natur;p;1;9;19;3;p;1;0.9809428999869851;001;ASLK98;2019_Nov_29_1623;iat_vr;60.01125811041845;
;;;;;;;;;;;001;ASLK98;2019_Nov_29_1623;iat_vr;60.01125811041845;
6;SCHLECHT;negativ;q;0;0;0;11;q;1;1.6670734999934211;001;ASLK98;2019_Nov_29_1623;iat_vr;60.01125811041845;
6;COMPUTER;Gemacht;q;0;1;1;8;q;1;0.897602500001085;001;ASLK98;2019_Nov_29_1623;iat_vr;60.01125811041845;
6;SCHLIMM;negativ;q;0;2;2;10;q;1;0.7776665999990655;001;ASLK98;2019_Nov_29_1623;iat_vr;60.01125811041845;
6;BLUME;Natur;p;0;3;3;2;p;1;0.8141997000057017;001;ASLK98;2019_Nov_29_1623;iat_vr;60.01125811041845;
6;EINWANDFREI;positiv;p;0;4;4;16;p;1;1.0017496000073152;001;ASLK98;2019_Nov_29_1623;iat_vr;60.01125811041845;
6;STADT;Gemacht;q;0;5;5;6;q;1;0.8815612000034889;001;ASLK98;2019_Nov_29_1623;iat_vr;60.01125811041845;
6;TIER;Natur;p;0;6;6;3;p;1;0.9145061000017449;001;ASLK98;2019_Nov_29_1623;iat_vr;60.01125811041845;
6;STEIN;Natur;p;0;7;7;4;p;1;1.5960166000004392;001;ASLK98;2019_Nov_29_1623;iat_vr;60.01125811041845;
6;BAUM;Natur;p;0;8;8;0;p;1;0.6321809999935795;001;ASLK98;2019_Nov_29_1623;iat_vr;60.01125811041845;
6;SCHWACH;negativ;q;0;9;9;14;p;0;1.1115102999901865;001;ASLK98;2019_Nov_29_1623;iat_vr;60.01125811041845;
6;NEGATIV;negativ;q;0;10;10;12;q;1;1.9148190000123577;001;ASLK98;2019_Nov_29_1623;iat_vr;60.01125811041845;
6;GEBÄUDE;Gemacht;q;0;11;11;5;q;1;1.3798894000065047;001;ASLK98;2019_Nov_29_1623;iat_vr;60.01125811041845;
6;POSITIV;positiv;p;0;12;12;18;p;1;1.0146415999915916;001;ASLK98;2019_Nov_29_1623;iat_vr;60.01125811041845;
6;SCHÄDLICH;negativ;q;0;13;13;13;q;1;1.6292240999900969;001;ASLK98;2019_Nov_29_1623;iat_vr;60.01125811041845;
6;GUT;positiv;p;0;14;14;19;p;1;0.9490588000044227;001;ASLK98;2019_Nov_29_1623;iat_vr;60.01125811041845;
6;AUSGEZEICHNET;positiv;p;0;15;15;15;p;1;0.7621641000005184;001;ASLK98;2019_Nov_29_1623;iat_vr;60.01125811041845;
6;LAMPE;Gemacht;q;0;16;16;9;q;1;0.9978747999994084;001;ASLK98;2019_Nov_29_1623;iat_vr;60.01125811041845;
6;WASSER;Natur;p;0;17;17;1;p;1;1.1478891000006115;001;ASLK98;2019_Nov_29_1623;iat_vr;60.01125811041845;
6;HERVORRAGEND;positiv;p;0;18;18;17;p;1;1.0961551999935182;001;ASLK98;2019_Nov_29_1623;iat_vr;60.01125811041845;
6;KLEIDER;Gemacht;q;0;19;19;7;q;1;0.8641808999964269;001;ASLK98;2019_Nov_29_1623;iat_vr;60.01125811041845;
;;;;;;;;;;;001;ASLK98;2019_Nov_29_1623;iat_vr;60.01125811041845;
7;SCHLIMM;negativ;q;0;0;0;10;q;1;0.9916135000094073;001;ASLK98;2019_Nov_29_1623;iat_vr;60.01125811041845;
7;BAUM;Natur;p;0;1;1;0;p;1;0.7832602999988012;001;ASLK98;2019_Nov_29_1623;iat_vr;60.01125811041845;
7;TIER;Natur;p;0;2;2;3;p;1;0.5838386999967042;001;ASLK98;2019_Nov_29_1623;iat_vr;60.01125811041845;
7;STEIN;Natur;p;0;3;3;4;p;1;0.7132001999998465;001;ASLK98;2019_Nov_29_1623;iat_vr;60.01125811041845;
7;SCHÄDLICH;negativ;q;0;4;4;13;q;1;0.8137036999978591;001;ASLK98;2019_Nov_29_1623;iat_vr;60.01125811041845;
7;COMPUTER;Gemacht;q;0;5;5;8;q;1;0.9804197000048589;001;ASLK98;2019_Nov_29_1623;iat_vr;60.01125811041845;
7;STADT;Gemacht;q;0;6;6;6;q;1;0.7318193000101019;001;ASLK98;2019_Nov_29_1623;iat_vr;60.01125811041845;
7;KLEIDER;Gemacht;q;0;7;7;7;q;1;0.7131862999958685;001;ASLK98;2019_Nov_29_1623;iat_vr;60.01125811041845;
7;GUT;positiv;p;0;8;8;19;p;1;0.914443299989216;001;ASLK98;2019_Nov_29_1623;iat_vr;60.01125811041845;
7;NEGATIV;negativ;q;0;9;9;12;q;1;0.6966250000114087;001;ASLK98;2019_Nov_29_1623;iat_vr;60.01125811041845;
7;SCHLECHT;negativ;q;0;10;10;11;q;1;0.714149899999029;001;ASLK98;2019_Nov_29_1623;iat_vr;60.01125811041845;
7;GEBÄUDE;Gemacht;q;0;11;11;5;q;1;0.9024464000103762;001;ASLK98;2019_Nov_29_1623;iat_vr;60.01125811041845;
7;WASSER;Natur;p;0;12;12;1;p;1;1.2952194000099553;001;ASLK98;2019_Nov_29_1623;iat_vr;60.01125811041845;
7;AUSGEZEICHNET;positiv;p;0;13;13;15;p;1;0.6856727999984287;001;ASLK98;2019_Nov_29_1623;iat_vr;60.01125811041845;
7;HERVORRAGEND;positiv;p;0;14;14;17;p;1;0.8688905000017257;001;ASLK98;2019_Nov_29_1623;iat_vr;60.01125811041845;
7;POSITIV;positiv;p;0;15;15;18;p;1;0.6458012999937637;001;ASLK98;2019_Nov_29_1623;iat_vr;60.01125811041845;
7;EINWANDFREI;positiv;p;0;16;16;16;p;1;0.8594574000017019;001;ASLK98;2019_Nov_29_1623;iat_vr;60.01125811041845;
7;SCHWACH;negativ;q;0;17;17;14;q;1;0.9314444000046933;001;ASLK98;2019_Nov_29_1623;iat_vr;60.01125811041845;
7;LAMPE;Gemacht;q;0;18;18;9;q;1;0.9318726000055904;001;ASLK98;2019_Nov_29_1623;iat_vr;60.01125811041845;
7;BLUME;Natur;p;0;19;19;2;p;1;0.7858926000044448;001;ASLK98;2019_Nov_29_1623;iat_vr;60.01125811041845;
7;STEIN;Natur;p;1;0;20;4;p;1;1.5812774999940302;001;ASLK98;2019_Nov_29_1623;iat_vr;60.01125811041845;
7;HERVORRAGEND;positiv;p;1;1;21;17;p;1;0.8010130000038771;001;ASLK98;2019_Nov_29_1623;iat_vr;60.01125811041845;
7;STADT;Gemacht;q;1;2;22;6;q;1;0.8629371999995783;001;ASLK98;2019_Nov_29_1623;iat_vr;60.01125811041845;
7;GEBÄUDE;Gemacht;q;1;3;23;5;q;1;0.7150279000052251;001;ASLK98;2019_Nov_29_1623;iat_vr;60.01125811041845;
7;KLEIDER;Gemacht;q;1;4;24;7;q;1;1.161804100003792;001;ASLK98;2019_Nov_29_1623;iat_vr;60.01125811041845;
7;WASSER;Natur;p;1;5;25;1;p;1;0.9478939999971772;001;ASLK98;2019_Nov_29_1623;iat_vr;60.01125811041845;
7;AUSGEZEICHNET;positiv;p;1;6;26;15;p;1;1.2094581999990623;001;ASLK98;2019_Nov_29_1623;iat_vr;60.01125811041845;
7;NEGATIV;negativ;q;1;7;27;12;q;1;0.6811040999891702;001;ASLK98;2019_Nov_29_1623;iat_vr;60.01125811041845;
7;TIER;Natur;p;1;8;28;3;p;1;0.8524253999930806;001;ASLK98;2019_Nov_29_1623;iat_vr;60.01125811041845;
7;EINWANDFREI;positiv;p;1;9;29;16;p;1;2.0260258000053;001;ASLK98;2019_Nov_29_1623;iat_vr;60.01125811041845;
7;POSITIV;positiv;p;1;10;30;18;p;1;0.6202691000071354;001;ASLK98;2019_Nov_29_1623;iat_vr;60.01125811041845;
7;BAUM;Natur;p;1;11;31;0;p;1;1.1325778999889735;001;ASLK98;2019_Nov_29_1623;iat_vr;60.01125811041845;
7;BLUME;Natur;p;1;12;32;2;p;1;0.6302596999885282;001;ASLK98;2019_Nov_29_1623;iat_vr;60.01125811041845;
7;SCHWACH;negativ;q;1;13;33;14;q;1;0.7284721000032732;001;ASLK98;2019_Nov_29_1623;iat_vr;60.01125811041845;
7;LAMPE;Gemacht;q;1;14;34;9;q;1;0.7624188000045251;001;ASLK98;2019_Nov_29_1623;iat_vr;60.01125811041845;
7;COMPUTER;Gemacht;q;1;15;35;8;q;1;0.5838268000079552;001;ASLK98;2019_Nov_29_1623;iat_vr;60.01125811041845;
7;SCHLIMM;negativ;q;1;16;36;10;q;1;0.7506657000049017;001;ASLK98;2019_Nov_29_1623;iat_vr;60.01125811041845;
7;GUT;positiv;p;1;17;37;19;p;1;0.8525982999999542;001;ASLK98;2019_Nov_29_1623;iat_vr;60.01125811041845;
7;SCHLECHT;negativ;q;1;18;38;11;q;1;0.680999599993811;001;ASLK98;2019_Nov_29_1623;iat_vr;60.01125811041845;
7;SCHÄDLICH;negativ;q;1;19;39;13;q;1;0.9639143999957014;001;ASLK98;2019_Nov_29_1623;iat_vr;60.01125811041845;
;;;;;;;;;;;001;ASLK98;2019_Nov_29_1623;iat_vr;60.01125811041845;
