Block;Word;Category;CorrResp;trials.thisRepN;trials.thisTrialN;trials.thisN;trials.thisIndex;key_resp_2.keys;key_resp_2.corr;key_resp_2.rt;session;participant;date;expName;frameRate;
1;GEBÄUDE;Gemacht;p;0;0;0;5;p;1;0.8414914999998473;002;ASSA97;2019_Nov_28_0902;iat_vr;60.68999671062949;
1;STADT;Gemacht;p;0;1;1;6;p;1;0.46428149999997004;002;ASSA97;2019_Nov_28_0902;iat_vr;60.68999671062949;
1;BAUM;Natur;q;0;2;2;0;q;1;0.6685262000000876;002;ASSA97;2019_Nov_28_0902;iat_vr;60.68999671062949;
1;STEIN;Natur;q;0;3;3;4;q;1;0.7346308999999565;002;ASSA97;2019_Nov_28_0902;iat_vr;60.68999671062949;
1;TIER;Natur;q;0;4;4;3;q;1;0.6488985999999386;002;ASSA97;2019_Nov_28_0902;iat_vr;60.68999671062949;
1;LAMPE;Gemacht;p;0;5;5;9;p;1;0.6781799000000319;002;ASSA97;2019_Nov_28_0902;iat_vr;60.68999671062949;
1;WASSER;Natur;q;0;6;6;1;q;1;0.5990183000001252;002;ASSA97;2019_Nov_28_0902;iat_vr;60.68999671062949;
1;KLEIDER;Gemacht;p;0;7;7;7;p;1;1.0498666999999386;002;ASSA97;2019_Nov_28_0902;iat_vr;60.68999671062949;
1;COMPUTER;Gemacht;p;0;8;8;8;p;1;0.6171185999999125;002;ASSA97;2019_Nov_28_0902;iat_vr;60.68999671062949;
1;BLUME;Natur;q;0;9;9;2;q;1;0.7669997999998941;002;ASSA97;2019_Nov_28_0902;iat_vr;60.68999671062949;
1;GEBÄUDE;Gemacht;p;1;0;10;5;p;1;0.5505055999999513;002;ASSA97;2019_Nov_28_0902;iat_vr;60.68999671062949;
1;BLUME;Natur;q;1;1;11;2;q;1;0.5169943999999305;002;ASSA97;2019_Nov_28_0902;iat_vr;60.68999671062949;
1;STADT;Gemacht;p;1;2;12;6;p;1;0.5508646000000681;002;ASSA97;2019_Nov_28_0902;iat_vr;60.68999671062949;
1;KLEIDER;Gemacht;p;1;3;13;7;p;1;1.0975206999999045;002;ASSA97;2019_Nov_28_0902;iat_vr;60.68999671062949;
1;STEIN;Natur;q;1;4;14;4;q;1;0.5625746999999137;002;ASSA97;2019_Nov_28_0902;iat_vr;60.68999671062949;
1;TIER;Natur;q;1;5;15;3;q;1;0.6842197999999371;002;ASSA97;2019_Nov_28_0902;iat_vr;60.68999671062949;
1;BAUM;Natur;q;1;6;16;0;q;1;0.8495534000001044;002;ASSA97;2019_Nov_28_0902;iat_vr;60.68999671062949;
1;WASSER;Natur;q;1;7;17;1;q;1;0.530822599999965;002;ASSA97;2019_Nov_28_0902;iat_vr;60.68999671062949;
1;LAMPE;Gemacht;p;1;8;18;9;p;1;0.6169838000000709;002;ASSA97;2019_Nov_28_0902;iat_vr;60.68999671062949;
1;COMPUTER;Gemacht;p;1;9;19;8;p;1;0.5665100999999595;002;ASSA97;2019_Nov_28_0902;iat_vr;60.68999671062949;
;;;;;;;;;;;002;ASSA97;2019_Nov_28_0902;iat_vr;60.68999671062949;
2;GUT;positiv;p;0;0;0;9;p;1;0.6064010000000053;002;ASSA97;2019_Nov_28_0902;iat_vr;60.68999671062949;
2;SCHLIMM;negativ;q;0;1;1;0;q;1;0.5503254000000197;002;ASSA97;2019_Nov_28_0902;iat_vr;60.68999671062949;
2;AUSGEZEICHNET;positiv;p;0;2;2;5;p;1;0.5859862999998313;002;ASSA97;2019_Nov_28_0902;iat_vr;60.68999671062949;
2;SCHÄDLICH;negativ;q;0;3;3;3;q;1;0.5455954000001384;002;ASSA97;2019_Nov_28_0902;iat_vr;60.68999671062949;
2;SCHWACH;negativ;q;0;4;4;4;q;1;0.7672038000000612;002;ASSA97;2019_Nov_28_0902;iat_vr;60.68999671062949;
2;HERVORRAGEND;positiv;p;0;5;5;7;p;1;0.7176787999999306;002;ASSA97;2019_Nov_28_0902;iat_vr;60.68999671062949;
2;SCHLECHT;negativ;q;0;6;6;1;q;1;0.6989622000000963;002;ASSA97;2019_Nov_28_0902;iat_vr;60.68999671062949;
2;EINWANDFREI;positiv;p;0;7;7;6;p;1;0.6169051000001673;002;ASSA97;2019_Nov_28_0902;iat_vr;60.68999671062949;
2;POSITIV;positiv;p;0;8;8;8;p;1;0.5837668000001486;002;ASSA97;2019_Nov_28_0902;iat_vr;60.68999671062949;
2;NEGATIV;negativ;q;0;9;9;2;q;1;0.6482098000001315;002;ASSA97;2019_Nov_28_0902;iat_vr;60.68999671062949;
2;SCHLIMM;negativ;q;1;0;10;0;q;1;0.5804312000000209;002;ASSA97;2019_Nov_28_0902;iat_vr;60.68999671062949;
2;NEGATIV;negativ;q;1;1;11;2;q;1;0.6828696000000036;002;ASSA97;2019_Nov_28_0902;iat_vr;60.68999671062949;
2;POSITIV;positiv;p;1;2;12;8;p;1;0.5816345000000638;002;ASSA97;2019_Nov_28_0902;iat_vr;60.68999671062949;
2;EINWANDFREI;positiv;p;1;3;13;6;p;1;0.5442944000001262;002;ASSA97;2019_Nov_28_0902;iat_vr;60.68999671062949;
2;SCHÄDLICH;negativ;q;1;4;14;3;q;1;0.6006224000000202;002;ASSA97;2019_Nov_28_0902;iat_vr;60.68999671062949;
2;AUSGEZEICHNET;positiv;p;1;5;15;5;p;1;0.6189200000001165;002;ASSA97;2019_Nov_28_0902;iat_vr;60.68999671062949;
2;GUT;positiv;p;1;6;16;9;p;1;0.5147913999999219;002;ASSA97;2019_Nov_28_0902;iat_vr;60.68999671062949;
2;SCHWACH;negativ;q;1;7;17;4;q;1;0.7685289000000921;002;ASSA97;2019_Nov_28_0902;iat_vr;60.68999671062949;
2;HERVORRAGEND;positiv;p;1;8;18;7;p;1;0.5772136000000501;002;ASSA97;2019_Nov_28_0902;iat_vr;60.68999671062949;
2;SCHLECHT;negativ;q;1;9;19;1;q;1;0.5837320999999065;002;ASSA97;2019_Nov_28_0902;iat_vr;60.68999671062949;
;;;;;;;;;;;002;ASSA97;2019_Nov_28_0902;iat_vr;60.68999671062949;
3;SCHLIMM;negativ;q;0;0;0;0;q;1;0.88472210000009;002;ASSA97;2019_Nov_28_0902;iat_vr;60.68999671062949;
3;KLEIDER;Gemacht;p;0;1;1;17;p;1;0.7129046000000017;002;ASSA97;2019_Nov_28_0902;iat_vr;60.68999671062949;
3;STEIN;Natur;q;0;2;2;14;q;1;0.6022925000002033;002;ASSA97;2019_Nov_28_0902;iat_vr;60.68999671062949;
3;GUT;positiv;p;0;3;3;9;p;1;0.868369199999961;002;ASSA97;2019_Nov_28_0902;iat_vr;60.68999671062949;
3;TIER;Natur;q;0;4;4;13;p;0;0.6316457999998875;002;ASSA97;2019_Nov_28_0902;iat_vr;60.68999671062949;
3;SCHLECHT;negativ;q;0;5;5;1;q;1;0.8497632000000976;002;ASSA97;2019_Nov_28_0902;iat_vr;60.68999671062949;
3;EINWANDFREI;positiv;p;0;6;6;6;p;1;0.6686890000000858;002;ASSA97;2019_Nov_28_0902;iat_vr;60.68999671062949;
3;BAUM;Natur;q;0;7;7;10;q;1;0.798815599999898;002;ASSA97;2019_Nov_28_0902;iat_vr;60.68999671062949;
3;SCHWACH;negativ;q;0;8;8;4;q;1;0.6820957999998427;002;ASSA97;2019_Nov_28_0902;iat_vr;60.68999671062949;
3;HERVORRAGEND;positiv;p;0;9;9;7;p;1;0.6277742999998281;002;ASSA97;2019_Nov_28_0902;iat_vr;60.68999671062949;
3;POSITIV;positiv;p;0;10;10;8;p;1;0.683548299999984;002;ASSA97;2019_Nov_28_0902;iat_vr;60.68999671062949;
3;AUSGEZEICHNET;positiv;p;0;11;11;5;p;1;0.6012675000001764;002;ASSA97;2019_Nov_28_0902;iat_vr;60.68999671062949;
3;GEBÄUDE;Gemacht;p;0;12;12;15;p;1;0.6505081000000246;002;ASSA97;2019_Nov_28_0902;iat_vr;60.68999671062949;
3;WASSER;Natur;q;0;13;13;11;q;1;0.6665055000000848;002;ASSA97;2019_Nov_28_0902;iat_vr;60.68999671062949;
3;LAMPE;Gemacht;p;0;14;14;19;p;1;0.6515626999998858;002;ASSA97;2019_Nov_28_0902;iat_vr;60.68999671062949;
3;SCHÄDLICH;negativ;q;0;15;15;3;q;1;0.6997546000000057;002;ASSA97;2019_Nov_28_0902;iat_vr;60.68999671062949;
3;COMPUTER;Gemacht;p;0;16;16;18;p;1;0.8961463999999069;002;ASSA97;2019_Nov_28_0902;iat_vr;60.68999671062949;
3;BLUME;Natur;q;0;17;17;12;q;1;0.651992699999937;002;ASSA97;2019_Nov_28_0902;iat_vr;60.68999671062949;
3;STADT;Gemacht;p;0;18;18;16;p;1;0.6475809999999456;002;ASSA97;2019_Nov_28_0902;iat_vr;60.68999671062949;
3;NEGATIV;negativ;q;0;19;19;2;q;1;0.7343597999999929;002;ASSA97;2019_Nov_28_0902;iat_vr;60.68999671062949;
;;;;;;;;;;;002;ASSA97;2019_Nov_28_0902;iat_vr;60.68999671062949;
4;SCHÄDLICH;negativ;q;0;0;0;3;q;1;0.8425518000001375;002;ASSA97;2019_Nov_28_0902;iat_vr;60.68999671062949;
4;COMPUTER;Gemacht;p;0;1;1;18;p;1;0.681116799999927;002;ASSA97;2019_Nov_28_0902;iat_vr;60.68999671062949;
4;SCHLECHT;negativ;q;0;2;2;1;q;1;0.7014897999999903;002;ASSA97;2019_Nov_28_0902;iat_vr;60.68999671062949;
4;SCHLIMM;negativ;q;0;3;3;0;q;1;0.7143978000001425;002;ASSA97;2019_Nov_28_0902;iat_vr;60.68999671062949;
4;GEBÄUDE;Gemacht;p;0;4;4;15;p;1;1.1814107999998669;002;ASSA97;2019_Nov_28_0902;iat_vr;60.68999671062949;
4;STEIN;Natur;q;0;5;5;14;q;1;0.8000535999999556;002;ASSA97;2019_Nov_28_0902;iat_vr;60.68999671062949;
4;EINWANDFREI;positiv;p;0;6;6;6;p;1;0.6445602999999664;002;ASSA97;2019_Nov_28_0902;iat_vr;60.68999671062949;
4;AUSGEZEICHNET;positiv;p;0;7;7;5;p;1;0.5765595000000303;002;ASSA97;2019_Nov_28_0902;iat_vr;60.68999671062949;
4;BLUME;Natur;q;0;8;8;12;q;1;0.6423660000000382;002;ASSA97;2019_Nov_28_0902;iat_vr;60.68999671062949;
4;SCHWACH;negativ;q;0;9;9;4;q;1;0.6307655999999042;002;ASSA97;2019_Nov_28_0902;iat_vr;60.68999671062949;
4;TIER;Natur;q;0;10;10;13;p;0;1.0176805999999488;002;ASSA97;2019_Nov_28_0902;iat_vr;60.68999671062949;
4;GUT;positiv;p;0;11;11;9;p;1;0.734940300000062;002;ASSA97;2019_Nov_28_0902;iat_vr;60.68999671062949;
4;LAMPE;Gemacht;p;0;12;12;19;p;1;0.6315618000000995;002;ASSA97;2019_Nov_28_0902;iat_vr;60.68999671062949;
4;STADT;Gemacht;p;0;13;13;16;p;1;0.7170082000000093;002;ASSA97;2019_Nov_28_0902;iat_vr;60.68999671062949;
4;BAUM;Natur;q;0;14;14;10;q;1;0.9682760000000599;002;ASSA97;2019_Nov_28_0902;iat_vr;60.68999671062949;
4;WASSER;Natur;q;0;15;15;11;q;1;0.6854261000000861;002;ASSA97;2019_Nov_28_0902;iat_vr;60.68999671062949;
4;KLEIDER;Gemacht;p;0;16;16;17;p;1;1.414216500000066;002;ASSA97;2019_Nov_28_0902;iat_vr;60.68999671062949;
4;NEGATIV;negativ;q;0;17;17;2;q;1;0.7626278000000184;002;ASSA97;2019_Nov_28_0902;iat_vr;60.68999671062949;
4;HERVORRAGEND;positiv;p;0;18;18;7;p;1;0.661706299999878;002;ASSA97;2019_Nov_28_0902;iat_vr;60.68999671062949;
4;POSITIV;positiv;p;0;19;19;8;p;1;0.712904700000081;002;ASSA97;2019_Nov_28_0902;iat_vr;60.68999671062949;
4;POSITIV;positiv;p;1;0;20;8;p;1;0.6687246999999843;002;ASSA97;2019_Nov_28_0902;iat_vr;60.68999671062949;
4;SCHWACH;negativ;q;1;1;21;4;q;1;0.6473120000000563;002;ASSA97;2019_Nov_28_0902;iat_vr;60.68999671062949;
4;GEBÄUDE;Gemacht;p;1;2;22;15;p;1;0.9486042999999427;002;ASSA97;2019_Nov_28_0902;iat_vr;60.68999671062949;
4;BAUM;Natur;q;1;3;23;10;q;1;0.6183904999998049;002;ASSA97;2019_Nov_28_0902;iat_vr;60.68999671062949;
4;STADT;Gemacht;p;1;4;24;16;p;1;0.7830678000000262;002;ASSA97;2019_Nov_28_0902;iat_vr;60.68999671062949;
4;LAMPE;Gemacht;p;1;5;25;19;p;1;0.6005688000000191;002;ASSA97;2019_Nov_28_0902;iat_vr;60.68999671062949;
4;KLEIDER;Gemacht;p;1;6;26;17;p;1;1.3485325999999986;002;ASSA97;2019_Nov_28_0902;iat_vr;60.68999671062949;
4;EINWANDFREI;positiv;p;1;7;27;6;p;1;0.7522313000001759;002;ASSA97;2019_Nov_28_0902;iat_vr;60.68999671062949;
4;GUT;positiv;p;1;8;28;9;p;1;0.6316546999998991;002;ASSA97;2019_Nov_28_0902;iat_vr;60.68999671062949;
4;SCHLECHT;negativ;q;1;9;29;1;q;1;0.681015699999989;002;ASSA97;2019_Nov_28_0902;iat_vr;60.68999671062949;
4;AUSGEZEICHNET;positiv;p;1;10;30;5;p;1;0.7933999000001677;002;ASSA97;2019_Nov_28_0902;iat_vr;60.68999671062949;
4;COMPUTER;Gemacht;p;1;11;31;18;p;1;0.699534599999879;002;ASSA97;2019_Nov_28_0902;iat_vr;60.68999671062949;
4;STEIN;Natur;q;1;12;32;14;q;1;0.634957500000155;002;ASSA97;2019_Nov_28_0902;iat_vr;60.68999671062949;
4;WASSER;Natur;q;1;13;33;11;q;1;0.8501050000002124;002;ASSA97;2019_Nov_28_0902;iat_vr;60.68999671062949;
4;TIER;Natur;q;1;14;34;13;q;1;0.616344399999889;002;ASSA97;2019_Nov_28_0902;iat_vr;60.68999671062949;
4;SCHÄDLICH;negativ;q;1;15;35;3;q;1;0.6898669999998219;002;ASSA97;2019_Nov_28_0902;iat_vr;60.68999671062949;
4;HERVORRAGEND;positiv;p;1;16;36;7;p;1;0.6758537999999135;002;ASSA97;2019_Nov_28_0902;iat_vr;60.68999671062949;
4;BLUME;Natur;q;1;17;37;12;q;1;0.8478109000000131;002;ASSA97;2019_Nov_28_0902;iat_vr;60.68999671062949;
4;SCHLIMM;negativ;q;1;18;38;0;q;1;0.6855282999999872;002;ASSA97;2019_Nov_28_0902;iat_vr;60.68999671062949;
4;NEGATIV;negativ;q;1;19;39;2;q;1;0.5975519999999506;002;ASSA97;2019_Nov_28_0902;iat_vr;60.68999671062949;
;;;;;;;;;;;002;ASSA97;2019_Nov_28_0902;iat_vr;60.68999671062949;
5;BAUM;Natur;p;0;0;0;0;p;1;0.8618529000000308;002;ASSA97;2019_Nov_28_0902;iat_vr;60.68999671062949;
5;WASSER;Natur;p;0;1;1;1;p;1;0.579470800000081;002;ASSA97;2019_Nov_28_0902;iat_vr;60.68999671062949;
5;BLUME;Natur;p;0;2;2;2;p;1;0.6014448000000812;002;ASSA97;2019_Nov_28_0902;iat_vr;60.68999671062949;
5;KLEIDER;Gemacht;q;0;3;3;7;q;1;0.599929000000202;002;ASSA97;2019_Nov_28_0902;iat_vr;60.68999671062949;
5;STEIN;Natur;p;0;4;4;4;p;1;0.6498398000001089;002;ASSA97;2019_Nov_28_0902;iat_vr;60.68999671062949;
5;TIER;Natur;p;0;5;5;3;p;1;0.6687205000000631;002;ASSA97;2019_Nov_28_0902;iat_vr;60.68999671062949;
5;STADT;Gemacht;q;0;6;6;6;q;1;0.6807178999999905;002;ASSA97;2019_Nov_28_0902;iat_vr;60.68999671062949;
5;GEBÄUDE;Gemacht;q;0;7;7;5;q;1;0.6688403000000562;002;ASSA97;2019_Nov_28_0902;iat_vr;60.68999671062949;
5;LAMPE;Gemacht;q;0;8;8;9;q;1;0.7144115000000966;002;ASSA97;2019_Nov_28_0902;iat_vr;60.68999671062949;
5;COMPUTER;Gemacht;q;0;9;9;8;q;1;0.5609921000000213;002;ASSA97;2019_Nov_28_0902;iat_vr;60.68999671062949;
5;BLUME;Natur;p;1;0;10;2;p;1;1.0148786999998265;002;ASSA97;2019_Nov_28_0902;iat_vr;60.68999671062949;
5;WASSER;Natur;p;1;1;11;1;p;1;0.5326591000000462;002;ASSA97;2019_Nov_28_0902;iat_vr;60.68999671062949;
5;BAUM;Natur;p;1;2;12;0;p;1;0.5185159000000112;002;ASSA97;2019_Nov_28_0902;iat_vr;60.68999671062949;
5;LAMPE;Gemacht;q;1;3;13;9;q;1;0.7790853999999854;002;ASSA97;2019_Nov_28_0902;iat_vr;60.68999671062949;
5;STADT;Gemacht;q;1;4;14;6;q;1;0.5350699999999051;002;ASSA97;2019_Nov_28_0902;iat_vr;60.68999671062949;
5;GEBÄUDE;Gemacht;q;1;5;15;5;q;1;0.5423737000000983;002;ASSA97;2019_Nov_28_0902;iat_vr;60.68999671062949;
5;TIER;Natur;p;1;6;16;3;p;1;1.2522722999999587;002;ASSA97;2019_Nov_28_0902;iat_vr;60.68999671062949;
5;KLEIDER;Gemacht;q;1;7;17;7;q;1;0.5977414999999837;002;ASSA97;2019_Nov_28_0902;iat_vr;60.68999671062949;
5;STEIN;Natur;p;1;8;18;4;p;1;0.6652636000001166;002;ASSA97;2019_Nov_28_0902;iat_vr;60.68999671062949;
5;COMPUTER;Gemacht;q;1;9;19;8;q;1;0.5337860999998156;002;ASSA97;2019_Nov_28_0902;iat_vr;60.68999671062949;
;;;;;;;;;;;002;ASSA97;2019_Nov_28_0902;iat_vr;60.68999671062949;
6;SCHLIMM;negativ;q;0;0;0;10;q;1;0.7357810000000882;002;ASSA97;2019_Nov_28_0902;iat_vr;60.68999671062949;
6;STADT;Gemacht;q;0;1;1;6;q;1;0.5187665000000834;002;ASSA97;2019_Nov_28_0902;iat_vr;60.68999671062949;
6;GUT;positiv;p;0;2;2;19;p;1;0.6153074000001197;002;ASSA97;2019_Nov_28_0902;iat_vr;60.68999671062949;
6;BLUME;Natur;p;0;3;3;2;p;1;0.9520148000001427;002;ASSA97;2019_Nov_28_0902;iat_vr;60.68999671062949;
6;WASSER;Natur;p;0;4;4;1;p;1;0.5647985999999037;002;ASSA97;2019_Nov_28_0902;iat_vr;60.68999671062949;
6;POSITIV;positiv;p;0;5;5;18;p;1;0.577446400000099;002;ASSA97;2019_Nov_28_0902;iat_vr;60.68999671062949;
6;SCHÄDLICH;negativ;q;0;6;6;13;q;1;0.5632140999998683;002;ASSA97;2019_Nov_28_0902;iat_vr;60.68999671062949;
6;LAMPE;Gemacht;q;0;7;7;9;q;1;0.5841284000000542;002;ASSA97;2019_Nov_28_0902;iat_vr;60.68999671062949;
6;COMPUTER;Gemacht;q;0;8;8;8;q;1;1.1174013999998351;002;ASSA97;2019_Nov_28_0902;iat_vr;60.68999671062949;
6;NEGATIV;negativ;q;0;9;9;12;q;1;0.6006167999998979;002;ASSA97;2019_Nov_28_0902;iat_vr;60.68999671062949;
6;HERVORRAGEND;positiv;p;0;10;10;17;p;1;0.6187155999998595;002;ASSA97;2019_Nov_28_0902;iat_vr;60.68999671062949;
6;TIER;Natur;p;0;11;11;3;p;1;0.6341235999998389;002;ASSA97;2019_Nov_28_0902;iat_vr;60.68999671062949;
6;AUSGEZEICHNET;positiv;p;0;12;12;15;p;1;0.6163248000000294;002;ASSA97;2019_Nov_28_0902;iat_vr;60.68999671062949;
6;STEIN;Natur;p;0;13;13;4;p;1;0.5858782999998766;002;ASSA97;2019_Nov_28_0902;iat_vr;60.68999671062949;
6;SCHLECHT;negativ;q;0;14;14;11;q;1;0.5985378999998829;002;ASSA97;2019_Nov_28_0902;iat_vr;60.68999671062949;
6;BAUM;Natur;p;0;15;15;0;p;1;0.732083399999965;002;ASSA97;2019_Nov_28_0902;iat_vr;60.68999671062949;
6;EINWANDFREI;positiv;p;0;16;16;16;p;1;0.6158199000001332;002;ASSA97;2019_Nov_28_0902;iat_vr;60.68999671062949;
6;SCHWACH;negativ;q;0;17;17;14;q;1;0.5839464999999109;002;ASSA97;2019_Nov_28_0902;iat_vr;60.68999671062949;
6;GEBÄUDE;Gemacht;q;0;18;18;5;q;1;0.8119729000000007;002;ASSA97;2019_Nov_28_0902;iat_vr;60.68999671062949;
6;KLEIDER;Gemacht;q;0;19;19;7;q;1;0.6287697999998727;002;ASSA97;2019_Nov_28_0902;iat_vr;60.68999671062949;
;;;;;;;;;;;002;ASSA97;2019_Nov_28_0902;iat_vr;60.68999671062949;
7;STEIN;Natur;p;0;0;0;4;p;1;0.8271713999999974;002;ASSA97;2019_Nov_28_0902;iat_vr;60.68999671062949;
7;KLEIDER;Gemacht;q;0;1;1;7;q;1;0.5685206999999082;002;ASSA97;2019_Nov_28_0902;iat_vr;60.68999671062949;
7;SCHLIMM;negativ;q;0;2;2;10;q;1;0.6149425000000974;002;ASSA97;2019_Nov_28_0902;iat_vr;60.68999671062949;
7;HERVORRAGEND;positiv;p;0;3;3;17;p;1;1.212032299999919;002;ASSA97;2019_Nov_28_0902;iat_vr;60.68999671062949;
7;AUSGEZEICHNET;positiv;p;0;4;4;15;p;1;0.5354403000001184;002;ASSA97;2019_Nov_28_0902;iat_vr;60.68999671062949;
7;BLUME;Natur;p;0;5;5;2;p;1;0.5598271999999724;002;ASSA97;2019_Nov_28_0902;iat_vr;60.68999671062949;
7;TIER;Natur;p;0;6;6;3;p;1;0.6140206000000035;002;ASSA97;2019_Nov_28_0902;iat_vr;60.68999671062949;
7;NEGATIV;negativ;q;0;7;7;12;q;1;0.5953547000001436;002;ASSA97;2019_Nov_28_0902;iat_vr;60.68999671062949;
7;SCHWACH;negativ;q;0;8;8;14;q;1;0.6599859999998898;002;ASSA97;2019_Nov_28_0902;iat_vr;60.68999671062949;
7;GEBÄUDE;Gemacht;q;0;9;9;5;q;1;0.5624124000000847;002;ASSA97;2019_Nov_28_0902;iat_vr;60.68999671062949;
7;COMPUTER;Gemacht;q;0;10;10;8;q;1;0.5629231000000345;002;ASSA97;2019_Nov_28_0902;iat_vr;60.68999671062949;
7;LAMPE;Gemacht;q;0;11;11;9;q;1;0.6352269999999862;002;ASSA97;2019_Nov_28_0902;iat_vr;60.68999671062949;
7;GUT;positiv;p;0;12;12;19;p;1;0.5827542999998059;002;ASSA97;2019_Nov_28_0902;iat_vr;60.68999671062949;
7;WASSER;Natur;p;0;13;13;1;p;1;0.5307008000002043;002;ASSA97;2019_Nov_28_0902;iat_vr;60.68999671062949;
7;STADT;Gemacht;q;0;14;14;6;p;0;0.598692999999912;002;ASSA97;2019_Nov_28_0902;iat_vr;60.68999671062949;
7;POSITIV;positiv;p;0;15;15;18;p;1;0.7022131999999601;002;ASSA97;2019_Nov_28_0902;iat_vr;60.68999671062949;
7;EINWANDFREI;positiv;p;0;16;16;16;p;1;0.5238670000001093;002;ASSA97;2019_Nov_28_0902;iat_vr;60.68999671062949;
7;SCHÄDLICH;negativ;q;0;17;17;13;q;1;0.7142682000001059;002;ASSA97;2019_Nov_28_0902;iat_vr;60.68999671062949;
7;BAUM;Natur;p;0;18;18;0;p;1;0.6989604999998846;002;ASSA97;2019_Nov_28_0902;iat_vr;60.68999671062949;
7;SCHLECHT;negativ;q;0;19;19;11;q;1;0.5833399000000554;002;ASSA97;2019_Nov_28_0902;iat_vr;60.68999671062949;
7;GEBÄUDE;Gemacht;q;1;0;20;5;q;1;0.8855327999999645;002;ASSA97;2019_Nov_28_0902;iat_vr;60.68999671062949;
7;GUT;positiv;p;1;1;21;19;p;1;0.5978721000001315;002;ASSA97;2019_Nov_28_0902;iat_vr;60.68999671062949;
7;SCHLECHT;negativ;q;1;2;22;11;q;1;0.6354459000001498;002;ASSA97;2019_Nov_28_0902;iat_vr;60.68999671062949;
7;EINWANDFREI;positiv;p;1;3;23;16;p;1;0.6767423999999664;002;ASSA97;2019_Nov_28_0902;iat_vr;60.68999671062949;
7;STADT;Gemacht;q;1;4;24;6;q;1;0.5682099000000562;002;ASSA97;2019_Nov_28_0902;iat_vr;60.68999671062949;
7;BLUME;Natur;p;1;5;25;2;p;1;0.5654332999999951;002;ASSA97;2019_Nov_28_0902;iat_vr;60.68999671062949;
7;SCHWACH;negativ;q;1;6;26;14;q;1;0.72844740000005;002;ASSA97;2019_Nov_28_0902;iat_vr;60.68999671062949;
7;WASSER;Natur;p;1;7;27;1;p;1;0.5688264000000345;002;ASSA97;2019_Nov_28_0902;iat_vr;60.68999671062949;
7;STEIN;Natur;p;1;8;28;4;p;1;0.5833268000001226;002;ASSA97;2019_Nov_28_0902;iat_vr;60.68999671062949;
7;TIER;Natur;p;1;9;29;3;p;1;0.518619899999976;002;ASSA97;2019_Nov_28_0902;iat_vr;60.68999671062949;
7;KLEIDER;Gemacht;q;1;10;30;7;q;1;0.5985418999998728;002;ASSA97;2019_Nov_28_0902;iat_vr;60.68999671062949;
7;POSITIV;positiv;p;1;11;31;18;p;1;0.7188710000000356;002;ASSA97;2019_Nov_28_0902;iat_vr;60.68999671062949;
7;AUSGEZEICHNET;positiv;p;1;12;32;15;p;1;0.6259170000000722;002;ASSA97;2019_Nov_28_0902;iat_vr;60.68999671062949;
7;BAUM;Natur;p;1;13;33;0;p;1;0.6342118000000028;002;ASSA97;2019_Nov_28_0902;iat_vr;60.68999671062949;
7;NEGATIV;negativ;q;1;14;34;12;q;1;0.5816855999999007;002;ASSA97;2019_Nov_28_0902;iat_vr;60.68999671062949;
7;COMPUTER;Gemacht;q;1;15;35;8;q;1;0.5485012999999981;002;ASSA97;2019_Nov_28_0902;iat_vr;60.68999671062949;
7;LAMPE;Gemacht;q;1;16;36;9;q;1;0.5982073000000128;002;ASSA97;2019_Nov_28_0902;iat_vr;60.68999671062949;
7;HERVORRAGEND;positiv;p;1;17;37;17;p;1;0.5592999999998938;002;ASSA97;2019_Nov_28_0902;iat_vr;60.68999671062949;
7;SCHLIMM;negativ;q;1;18;38;10;q;1;0.49305809999987105;002;ASSA97;2019_Nov_28_0902;iat_vr;60.68999671062949;
7;SCHÄDLICH;negativ;q;1;19;39;13;q;1;0.565570100000059;002;ASSA97;2019_Nov_28_0902;iat_vr;60.68999671062949;
;;;;;;;;;;;002;ASSA97;2019_Nov_28_0902;iat_vr;60.68999671062949;
