Block;Word;Category;CorrResp;trials.thisRepN;trials.thisTrialN;trials.thisN;trials.thisIndex;key_resp_2.keys;key_resp_2.corr;key_resp_2.rt;session;participant;date;expName;frameRate;
1;BLUME;Natur;q;0;0;0;2;q;1;0.9939066999995703;002;ASSG97;2019_Nov_28_1228;iat_vr;59.9744029247627;
1;GEBÄUDE;Gemacht;p;0;1;1;5;p;1;0.6382145999996283;002;ASSG97;2019_Nov_28_1228;iat_vr;59.9744029247627;
1;STEIN;Natur;q;0;2;2;4;p;0;0.4724062999994203;002;ASSG97;2019_Nov_28_1228;iat_vr;59.9744029247627;
1;STADT;Gemacht;p;0;3;3;6;p;1;1.046629500000563;002;ASSG97;2019_Nov_28_1228;iat_vr;59.9744029247627;
1;BAUM;Natur;q;0;4;4;0;q;1;0.6485474000000977;002;ASSG97;2019_Nov_28_1228;iat_vr;59.9744029247627;
1;LAMPE;Gemacht;p;0;5;5;9;p;1;1.4282581999996182;002;ASSG97;2019_Nov_28_1228;iat_vr;59.9744029247627;
1;TIER;Natur;q;0;6;6;3;q;1;0.6011647000013909;002;ASSG97;2019_Nov_28_1228;iat_vr;59.9744029247627;
1;COMPUTER;Gemacht;p;0;7;7;8;p;1;0.7228486999993038;002;ASSG97;2019_Nov_28_1228;iat_vr;59.9744029247627;
1;KLEIDER;Gemacht;p;0;8;8;7;p;1;0.6628786000001128;002;ASSG97;2019_Nov_28_1228;iat_vr;59.9744029247627;
1;WASSER;Natur;q;0;9;9;1;q;1;0.7127056999997876;002;ASSG97;2019_Nov_28_1228;iat_vr;59.9744029247627;
1;STEIN;Natur;q;1;0;10;4;q;1;0.7345896000006178;002;ASSG97;2019_Nov_28_1228;iat_vr;59.9744029247627;
1;KLEIDER;Gemacht;p;1;1;11;7;p;1;0.8317697000002227;002;ASSG97;2019_Nov_28_1228;iat_vr;59.9744029247627;
1;BAUM;Natur;q;1;2;12;0;q;1;0.6657264999994368;002;ASSG97;2019_Nov_28_1228;iat_vr;59.9744029247627;
1;LAMPE;Gemacht;p;1;3;13;9;p;1;0.7483142000000953;002;ASSG97;2019_Nov_28_1228;iat_vr;59.9744029247627;
1;WASSER;Natur;q;1;4;14;1;q;1;0.6460219000000507;002;ASSG97;2019_Nov_28_1228;iat_vr;59.9744029247627;
1;BLUME;Natur;q;1;5;15;2;q;1;0.830051299999468;002;ASSG97;2019_Nov_28_1228;iat_vr;59.9744029247627;
1;STADT;Gemacht;p;1;6;16;6;p;1;0.6853578999998717;002;ASSG97;2019_Nov_28_1228;iat_vr;59.9744029247627;
1;COMPUTER;Gemacht;p;1;7;17;8;p;1;0.7314079999996466;002;ASSG97;2019_Nov_28_1228;iat_vr;59.9744029247627;
1;TIER;Natur;q;1;8;18;3;q;1;0.6648187999999209;002;ASSG97;2019_Nov_28_1228;iat_vr;59.9744029247627;
1;GEBÄUDE;Gemacht;p;1;9;19;5;p;1;0.847419899999295;002;ASSG97;2019_Nov_28_1228;iat_vr;59.9744029247627;
;;;;;;;;;;;002;ASSG97;2019_Nov_28_1228;iat_vr;59.9744029247627;
2;SCHÄDLICH;negativ;q;0;0;0;3;q;1;1.3283551999993506;002;ASSG97;2019_Nov_28_1228;iat_vr;59.9744029247627;
2;SCHWACH;negativ;q;0;1;1;4;q;1;0.5143297000013263;002;ASSG97;2019_Nov_28_1228;iat_vr;59.9744029247627;
2;AUSGEZEICHNET;positiv;p;0;2;2;5;p;1;0.5817502999998396;002;ASSG97;2019_Nov_28_1228;iat_vr;59.9744029247627;
2;NEGATIV;negativ;q;0;3;3;2;q;1;0.5756350999999995;002;ASSG97;2019_Nov_28_1228;iat_vr;59.9744029247627;
2;SCHLIMM;negativ;q;0;4;4;0;q;1;0.7633511999993061;002;ASSG97;2019_Nov_28_1228;iat_vr;59.9744029247627;
2;HERVORRAGEND;positiv;p;0;5;5;7;p;1;0.6116704999985814;002;ASSG97;2019_Nov_28_1228;iat_vr;59.9744029247627;
2;EINWANDFREI;positiv;p;0;6;6;6;p;1;0.8936929999999847;002;ASSG97;2019_Nov_28_1228;iat_vr;59.9744029247627;
2;POSITIV;positiv;p;0;7;7;8;p;1;0.8970067000009294;002;ASSG97;2019_Nov_28_1228;iat_vr;59.9744029247627;
2;GUT;positiv;p;0;8;8;9;p;1;0.7823429000000033;002;ASSG97;2019_Nov_28_1228;iat_vr;59.9744029247627;
2;SCHLECHT;negativ;q;0;9;9;1;q;1;0.7963077000003977;002;ASSG97;2019_Nov_28_1228;iat_vr;59.9744029247627;
2;SCHLIMM;negativ;q;1;0;10;0;q;1;0.9318058000008023;002;ASSG97;2019_Nov_28_1228;iat_vr;59.9744029247627;
2;POSITIV;positiv;p;1;1;11;8;p;1;0.6307715000002645;002;ASSG97;2019_Nov_28_1228;iat_vr;59.9744029247627;
2;EINWANDFREI;positiv;p;1;2;12;6;p;1;0.716534799999863;002;ASSG97;2019_Nov_28_1228;iat_vr;59.9744029247627;
2;SCHLECHT;negativ;q;1;3;13;1;q;1;0.6282706999991206;002;ASSG97;2019_Nov_28_1228;iat_vr;59.9744029247627;
2;NEGATIV;negativ;q;1;4;14;2;p;0;0.7623854000012216;002;ASSG97;2019_Nov_28_1228;iat_vr;59.9744029247627;
2;AUSGEZEICHNET;positiv;p;1;5;15;5;p;1;0.9766405999998824;002;ASSG97;2019_Nov_28_1228;iat_vr;59.9744029247627;
2;HERVORRAGEND;positiv;p;1;6;16;7;p;1;0.6737075000000914;002;ASSG97;2019_Nov_28_1228;iat_vr;59.9744029247627;
2;SCHWACH;negativ;q;1;7;17;4;q;1;0.699130700000751;002;ASSG97;2019_Nov_28_1228;iat_vr;59.9744029247627;
2;SCHÄDLICH;negativ;q;1;8;18;3;q;1;0.5787790000013047;002;ASSG97;2019_Nov_28_1228;iat_vr;59.9744029247627;
2;GUT;positiv;p;1;9;19;9;p;1;1.0489609000014752;002;ASSG97;2019_Nov_28_1228;iat_vr;59.9744029247627;
;;;;;;;;;;;002;ASSG97;2019_Nov_28_1228;iat_vr;59.9744029247627;
3;STEIN;Natur;q;0;0;0;14;q;1;0.8171724000003451;002;ASSG97;2019_Nov_28_1228;iat_vr;59.9744029247627;
3;NEGATIV;negativ;q;0;1;1;2;q;1;0.5123058999997738;002;ASSG97;2019_Nov_28_1228;iat_vr;59.9744029247627;
3;SCHLECHT;negativ;q;0;2;2;1;q;1;0.5815564000004088;002;ASSG97;2019_Nov_28_1228;iat_vr;59.9744029247627;
3;SCHLIMM;negativ;q;0;3;3;0;q;1;0.5473283999999694;002;ASSG97;2019_Nov_28_1228;iat_vr;59.9744029247627;
3;HERVORRAGEND;positiv;p;0;4;4;7;p;1;1.2297255000012228;002;ASSG97;2019_Nov_28_1228;iat_vr;59.9744029247627;
3;SCHÄDLICH;negativ;q;0;5;5;3;q;1;0.8140568999988318;002;ASSG97;2019_Nov_28_1228;iat_vr;59.9744029247627;
3;COMPUTER;Gemacht;p;0;6;6;18;p;1;0.6641027000005124;002;ASSG97;2019_Nov_28_1228;iat_vr;59.9744029247627;
3;SCHWACH;negativ;q;0;7;7;4;q;1;1.3293512000000192;002;ASSG97;2019_Nov_28_1228;iat_vr;59.9744029247627;
3;AUSGEZEICHNET;positiv;p;0;8;8;5;p;1;0.8113751000000775;002;ASSG97;2019_Nov_28_1228;iat_vr;59.9744029247627;
3;GUT;positiv;p;0;9;9;9;p;1;0.8324997999989137;002;ASSG97;2019_Nov_28_1228;iat_vr;59.9744029247627;
3;STADT;Gemacht;p;0;10;10;16;p;1;1.0297484999991866;002;ASSG97;2019_Nov_28_1228;iat_vr;59.9744029247627;
3;GEBÄUDE;Gemacht;p;0;11;11;15;p;1;0.7971046000002389;002;ASSG97;2019_Nov_28_1228;iat_vr;59.9744029247627;
3;POSITIV;positiv;p;0;12;12;8;p;1;0.6647224000007554;002;ASSG97;2019_Nov_28_1228;iat_vr;59.9744029247627;
3;EINWANDFREI;positiv;p;0;13;13;6;p;1;0.646619400000418;002;ASSG97;2019_Nov_28_1228;iat_vr;59.9744029247627;
3;WASSER;Natur;q;0;14;14;11;q;1;1.0833426999997755;002;ASSG97;2019_Nov_28_1228;iat_vr;59.9744029247627;
3;BAUM;Natur;q;0;15;15;10;q;1;0.49961849999999686;002;ASSG97;2019_Nov_28_1228;iat_vr;59.9744029247627;
3;BLUME;Natur;q;0;16;16;12;q;1;0.5127412999991066;002;ASSG97;2019_Nov_28_1228;iat_vr;59.9744029247627;
3;LAMPE;Gemacht;p;0;17;17;19;p;1;0.730629300000146;002;ASSG97;2019_Nov_28_1228;iat_vr;59.9744029247627;
3;TIER;Natur;q;0;18;18;13;q;1;0.6326621000007435;002;ASSG97;2019_Nov_28_1228;iat_vr;59.9744029247627;
3;KLEIDER;Gemacht;p;0;19;19;17;p;1;0.995591400000194;002;ASSG97;2019_Nov_28_1228;iat_vr;59.9744029247627;
;;;;;;;;;;;002;ASSG97;2019_Nov_28_1228;iat_vr;59.9744029247627;
4;WASSER;Natur;q;0;0;0;11;q;1;0.9010987999990903;002;ASSG97;2019_Nov_28_1228;iat_vr;59.9744029247627;
4;SCHLIMM;negativ;q;0;1;1;0;q;1;0.8476474999988568;002;ASSG97;2019_Nov_28_1228;iat_vr;59.9744029247627;
4;NEGATIV;negativ;q;0;2;2;2;q;1;0.5467831999994814;002;ASSG97;2019_Nov_28_1228;iat_vr;59.9744029247627;
4;KLEIDER;Gemacht;p;0;3;3;17;q;0;0.7646999999997206;002;ASSG97;2019_Nov_28_1228;iat_vr;59.9744029247627;
4;SCHWACH;negativ;q;0;4;4;4;q;1;1.3480240000008052;002;ASSG97;2019_Nov_28_1228;iat_vr;59.9744029247627;
4;GEBÄUDE;Gemacht;p;0;5;5;15;p;1;0.7312583999992057;002;ASSG97;2019_Nov_28_1228;iat_vr;59.9744029247627;
4;AUSGEZEICHNET;positiv;p;0;6;6;5;p;1;0.6765636000000086;002;ASSG97;2019_Nov_28_1228;iat_vr;59.9744029247627;
4;HERVORRAGEND;positiv;p;0;7;7;7;p;1;0.5634179999997286;002;ASSG97;2019_Nov_28_1228;iat_vr;59.9744029247627;
4;TIER;Natur;q;0;8;8;13;q;1;0.6660271999990073;002;ASSG97;2019_Nov_28_1228;iat_vr;59.9744029247627;
4;BLUME;Natur;q;0;9;9;12;q;1;1.1317041999991488;002;ASSG97;2019_Nov_28_1228;iat_vr;59.9744029247627;
4;STEIN;Natur;q;0;10;10;14;q;1;0.6819343000006484;002;ASSG97;2019_Nov_28_1228;iat_vr;59.9744029247627;
4;GUT;positiv;p;0;11;11;9;p;1;0.9657613999988826;002;ASSG97;2019_Nov_28_1228;iat_vr;59.9744029247627;
4;SCHLECHT;negativ;q;0;12;12;1;q;1;0.7944895000000542;002;ASSG97;2019_Nov_28_1228;iat_vr;59.9744029247627;
4;SCHÄDLICH;negativ;q;0;13;13;3;q;1;0.748907600000166;002;ASSG97;2019_Nov_28_1228;iat_vr;59.9744029247627;
4;STADT;Gemacht;p;0;14;14;16;p;1;1.2653908000011143;002;ASSG97;2019_Nov_28_1228;iat_vr;59.9744029247627;
4;COMPUTER;Gemacht;p;0;15;15;18;p;1;0.7120160000013129;002;ASSG97;2019_Nov_28_1228;iat_vr;59.9744029247627;
4;EINWANDFREI;positiv;p;0;16;16;6;p;1;1.0620912999984284;002;ASSG97;2019_Nov_28_1228;iat_vr;59.9744029247627;
4;LAMPE;Gemacht;p;0;17;17;19;p;1;0.6635579999983747;002;ASSG97;2019_Nov_28_1228;iat_vr;59.9744029247627;
4;POSITIV;positiv;p;0;18;18;8;p;1;0.8141271000004053;002;ASSG97;2019_Nov_28_1228;iat_vr;59.9744029247627;
4;BAUM;Natur;q;0;19;19;10;q;1;0.7975167000004149;002;ASSG97;2019_Nov_28_1228;iat_vr;59.9744029247627;
4;EINWANDFREI;positiv;p;1;0;20;6;p;1;0.9181430999997247;002;ASSG97;2019_Nov_28_1228;iat_vr;59.9744029247627;
4;GUT;positiv;p;1;1;21;9;p;1;0.7210626000014599;002;ASSG97;2019_Nov_28_1228;iat_vr;59.9744029247627;
4;BAUM;Natur;q;1;2;22;10;q;1;0.8314567999987048;002;ASSG97;2019_Nov_28_1228;iat_vr;59.9744029247627;
4;POSITIV;positiv;p;1;3;23;8;p;1;0.8471296999996412;002;ASSG97;2019_Nov_28_1228;iat_vr;59.9744029247627;
4;GEBÄUDE;Gemacht;p;1;4;24;15;p;1;1.2311618999992788;002;ASSG97;2019_Nov_28_1228;iat_vr;59.9744029247627;
4;STADT;Gemacht;p;1;5;25;16;p;1;0.915143000000171;002;ASSG97;2019_Nov_28_1228;iat_vr;59.9744029247627;
4;BLUME;Natur;q;1;6;26;12;q;1;0.5987989000004745;002;ASSG97;2019_Nov_28_1228;iat_vr;59.9744029247627;
4;AUSGEZEICHNET;positiv;p;1;7;27;5;p;1;0.7128226000004361;002;ASSG97;2019_Nov_28_1228;iat_vr;59.9744029247627;
4;SCHLECHT;negativ;q;1;8;28;1;q;1;0.5794191000004503;002;ASSG97;2019_Nov_28_1228;iat_vr;59.9744029247627;
4;KLEIDER;Gemacht;p;1;9;29;17;p;1;0.7454046000002563;002;ASSG97;2019_Nov_28_1228;iat_vr;59.9744029247627;
4;WASSER;Natur;q;1;10;30;11;q;1;0.7819767000000866;002;ASSG97;2019_Nov_28_1228;iat_vr;59.9744029247627;
4;HERVORRAGEND;positiv;p;1;11;31;7;p;1;0.7771944999985863;002;ASSG97;2019_Nov_28_1228;iat_vr;59.9744029247627;
4;COMPUTER;Gemacht;p;1;12;32;18;p;1;1.3473785000005591;002;ASSG97;2019_Nov_28_1228;iat_vr;59.9744029247627;
4;SCHLIMM;negativ;q;1;13;33;0;p;0;0.6983574000005319;002;ASSG97;2019_Nov_28_1228;iat_vr;59.9744029247627;
4;TIER;Natur;q;1;14;34;13;q;1;1.1482802999998967;002;ASSG97;2019_Nov_28_1228;iat_vr;59.9744029247627;
4;SCHWACH;negativ;q;1;15;35;4;p;0;0.9309604000009131;002;ASSG97;2019_Nov_28_1228;iat_vr;59.9744029247627;
4;NEGATIV;negativ;q;1;16;36;2;q;1;1.13147570000001;002;ASSG97;2019_Nov_28_1228;iat_vr;59.9744029247627;
4;LAMPE;Gemacht;p;1;17;37;19;p;1;0.8178566000005958;002;ASSG97;2019_Nov_28_1228;iat_vr;59.9744029247627;
4;STEIN;Natur;q;1;18;38;14;q;1;0.9643555999991804;002;ASSG97;2019_Nov_28_1228;iat_vr;59.9744029247627;
4;SCHÄDLICH;negativ;q;1;19;39;3;q;1;0.6466337999991083;002;ASSG97;2019_Nov_28_1228;iat_vr;59.9744029247627;
;;;;;;;;;;;002;ASSG97;2019_Nov_28_1228;iat_vr;59.9744029247627;
5;WASSER;Natur;p;0;0;0;1;p;1;0.7136452999984613;002;ASSG97;2019_Nov_28_1228;iat_vr;59.9744029247627;
5;GEBÄUDE;Gemacht;q;0;1;1;5;q;1;0.6476098999992246;002;ASSG97;2019_Nov_28_1228;iat_vr;59.9744029247627;
5;BAUM;Natur;p;0;2;2;0;p;1;0.7628541000012774;002;ASSG97;2019_Nov_28_1228;iat_vr;59.9744029247627;
5;STEIN;Natur;p;0;3;3;4;p;1;0.9139508999996906;002;ASSG97;2019_Nov_28_1228;iat_vr;59.9744029247627;
5;COMPUTER;Gemacht;q;0;4;4;8;q;1;0.6290883000001486;002;ASSG97;2019_Nov_28_1228;iat_vr;59.9744029247627;
5;TIER;Natur;p;0;5;5;3;p;1;0.7190553999989788;002;ASSG97;2019_Nov_28_1228;iat_vr;59.9744029247627;
5;LAMPE;Gemacht;q;0;6;6;9;q;1;1.065427699999418;002;ASSG97;2019_Nov_28_1228;iat_vr;59.9744029247627;
5;KLEIDER;Gemacht;q;0;7;7;7;q;1;1.214078499999232;002;ASSG97;2019_Nov_28_1228;iat_vr;59.9744029247627;
5;BLUME;Natur;p;0;8;8;2;p;1;0.681786799999827;002;ASSG97;2019_Nov_28_1228;iat_vr;59.9744029247627;
5;STADT;Gemacht;q;0;9;9;6;q;1;0.7314376000012999;002;ASSG97;2019_Nov_28_1228;iat_vr;59.9744029247627;
5;STADT;Gemacht;q;1;0;10;6;q;1;0.5175775000006979;002;ASSG97;2019_Nov_28_1228;iat_vr;59.9744029247627;
5;KLEIDER;Gemacht;q;1;1;11;7;p;0;0.9136975999990682;002;ASSG97;2019_Nov_28_1228;iat_vr;59.9744029247627;
5;STEIN;Natur;p;1;2;12;4;p;1;1.165115899999364;002;ASSG97;2019_Nov_28_1228;iat_vr;59.9744029247627;
5;BAUM;Natur;p;1;3;13;0;p;1;0.549253499999395;002;ASSG97;2019_Nov_28_1228;iat_vr;59.9744029247627;
5;GEBÄUDE;Gemacht;q;1;4;14;5;q;1;0.8982907999998133;002;ASSG97;2019_Nov_28_1228;iat_vr;59.9744029247627;
5;TIER;Natur;p;1;5;15;3;p;1;0.6149239000005764;002;ASSG97;2019_Nov_28_1228;iat_vr;59.9744029247627;
5;COMPUTER;Gemacht;q;1;6;16;8;q;1;0.9492477000003419;002;ASSG97;2019_Nov_28_1228;iat_vr;59.9744029247627;
5;BLUME;Natur;p;1;7;17;2;q;0;1.3993414999986271;002;ASSG97;2019_Nov_28_1228;iat_vr;59.9744029247627;
5;LAMPE;Gemacht;q;1;8;18;9;q;1;1.7152160999994521;002;ASSG97;2019_Nov_28_1228;iat_vr;59.9744029247627;
5;WASSER;Natur;p;1;9;19;1;p;1;1.0652425000007497;002;ASSG97;2019_Nov_28_1228;iat_vr;59.9744029247627;
;;;;;;;;;;;002;ASSG97;2019_Nov_28_1228;iat_vr;59.9744029247627;
6;COMPUTER;Gemacht;q;0;0;0;8;q;1;1.0499939000001177;002;ASSG97;2019_Nov_28_1228;iat_vr;59.9744029247627;
6;SCHLIMM;negativ;q;0;1;1;10;q;1;0.5484741000000213;002;ASSG97;2019_Nov_28_1228;iat_vr;59.9744029247627;
6;HERVORRAGEND;positiv;p;0;2;2;17;p;1;0.6429324000000634;002;ASSG97;2019_Nov_28_1228;iat_vr;59.9744029247627;
6;NEGATIV;negativ;q;0;3;3;12;q;1;0.7974156999989646;002;ASSG97;2019_Nov_28_1228;iat_vr;59.9744029247627;
6;EINWANDFREI;positiv;p;0;4;4;16;p;1;0.7930377000011504;002;ASSG97;2019_Nov_28_1228;iat_vr;59.9744029247627;
6;SCHLECHT;negativ;q;0;5;5;11;q;1;0.6809554999999818;002;ASSG97;2019_Nov_28_1228;iat_vr;59.9744029247627;
6;STEIN;Natur;p;0;6;6;4;p;1;0.8357692999998108;002;ASSG97;2019_Nov_28_1228;iat_vr;59.9744029247627;
6;TIER;Natur;p;0;7;7;3;p;1;0.6853499000008014;002;ASSG97;2019_Nov_28_1228;iat_vr;59.9744029247627;
6;SCHWACH;negativ;q;0;8;8;14;q;1;1.2811774000001606;002;ASSG97;2019_Nov_28_1228;iat_vr;59.9744029247627;
6;SCHÄDLICH;negativ;q;0;9;9;13;q;1;0.6789188999991893;002;ASSG97;2019_Nov_28_1228;iat_vr;59.9744029247627;
6;BLUME;Natur;p;0;10;10;2;p;1;0.6812122000010277;002;ASSG97;2019_Nov_28_1228;iat_vr;59.9744029247627;
6;AUSGEZEICHNET;positiv;p;0;11;11;15;p;1;1.1096873000005871;002;ASSG97;2019_Nov_28_1228;iat_vr;59.9744029247627;
6;KLEIDER;Gemacht;q;0;12;12;7;q;1;0.681543499998952;002;ASSG97;2019_Nov_28_1228;iat_vr;59.9744029247627;
6;STADT;Gemacht;q;0;13;13;6;q;1;1.3986352999982046;002;ASSG97;2019_Nov_28_1228;iat_vr;59.9744029247627;
6;BAUM;Natur;p;0;14;14;0;p;1;0.7191416999994544;002;ASSG97;2019_Nov_28_1228;iat_vr;59.9744029247627;
6;LAMPE;Gemacht;q;0;15;15;9;q;1;0.7143146999987948;002;ASSG97;2019_Nov_28_1228;iat_vr;59.9744029247627;
6;GEBÄUDE;Gemacht;q;0;16;16;5;q;1;1.1315983000004053;002;ASSG97;2019_Nov_28_1228;iat_vr;59.9744029247627;
6;POSITIV;positiv;p;0;17;17;18;p;1;0.9314387000013085;002;ASSG97;2019_Nov_28_1228;iat_vr;59.9744029247627;
6;WASSER;Natur;p;0;18;18;1;q;0;0.6151138000004721;002;ASSG97;2019_Nov_28_1228;iat_vr;59.9744029247627;
6;GUT;positiv;p;0;19;19;19;p;1;0.598628199999439;002;ASSG97;2019_Nov_28_1228;iat_vr;59.9744029247627;
;;;;;;;;;;;002;ASSG97;2019_Nov_28_1228;iat_vr;59.9744029247627;
7;GUT;positiv;p;0;0;0;19;p;1;0.5578290000012203;002;ASSG97;2019_Nov_28_1228;iat_vr;59.9744029247627;
7;POSITIV;positiv;p;0;1;1;18;p;1;0.5822035000001051;002;ASSG97;2019_Nov_28_1228;iat_vr;59.9744029247627;
7;WASSER;Natur;p;0;2;2;1;p;1;0.5801326000000699;002;ASSG97;2019_Nov_28_1228;iat_vr;59.9744029247627;
7;EINWANDFREI;positiv;p;0;3;3;16;p;1;0.842899799999941;002;ASSG97;2019_Nov_28_1228;iat_vr;59.9744029247627;
7;SCHWACH;negativ;q;0;4;4;14;q;1;0.6653556000001117;002;ASSG97;2019_Nov_28_1228;iat_vr;59.9744029247627;
7;COMPUTER;Gemacht;q;0;5;5;8;q;1;0.6689084999998158;002;ASSG97;2019_Nov_28_1228;iat_vr;59.9744029247627;
7;LAMPE;Gemacht;q;0;6;6;9;q;1;0.7482722999993712;002;ASSG97;2019_Nov_28_1228;iat_vr;59.9744029247627;
7;SCHLECHT;negativ;q;0;7;7;11;q;1;0.9300906999997096;002;ASSG97;2019_Nov_28_1228;iat_vr;59.9744029247627;
7;TIER;Natur;p;0;8;8;3;p;1;1.2316166999989946;002;ASSG97;2019_Nov_28_1228;iat_vr;59.9744029247627;
7;SCHÄDLICH;negativ;q;0;9;9;13;q;1;0.6790693999992072;002;ASSG97;2019_Nov_28_1228;iat_vr;59.9744029247627;
7;HERVORRAGEND;positiv;p;0;10;10;17;p;1;0.829420799998843;002;ASSG97;2019_Nov_28_1228;iat_vr;59.9744029247627;
7;NEGATIV;negativ;q;0;11;11;12;q;1;1.243110000001252;002;ASSG97;2019_Nov_28_1228;iat_vr;59.9744029247627;
7;KLEIDER;Gemacht;q;0;12;12;7;q;1;0.7645265999999538;002;ASSG97;2019_Nov_28_1228;iat_vr;59.9744029247627;
7;SCHLIMM;negativ;q;0;13;13;10;q;1;0.7146424000002298;002;ASSG97;2019_Nov_28_1228;iat_vr;59.9744029247627;
7;STEIN;Natur;p;0;14;14;4;p;1;1.4824353000003612;002;ASSG97;2019_Nov_28_1228;iat_vr;59.9744029247627;
7;BAUM;Natur;p;0;15;15;0;p;1;0.5853112999993755;002;ASSG97;2019_Nov_28_1228;iat_vr;59.9744029247627;
7;AUSGEZEICHNET;positiv;p;0;16;16;15;p;1;0.6955663000007917;002;ASSG97;2019_Nov_28_1228;iat_vr;59.9744029247627;
7;BLUME;Natur;p;0;17;17;2;p;1;0.5964752999989287;002;ASSG97;2019_Nov_28_1228;iat_vr;59.9744029247627;
7;GEBÄUDE;Gemacht;q;0;18;18;5;q;1;0.7629001000004791;002;ASSG97;2019_Nov_28_1228;iat_vr;59.9744029247627;
7;STADT;Gemacht;q;0;19;19;6;q;1;0.8677482000002783;002;ASSG97;2019_Nov_28_1228;iat_vr;59.9744029247627;
7;GEBÄUDE;Gemacht;q;1;0;20;5;q;1;0.8940259999999398;002;ASSG97;2019_Nov_28_1228;iat_vr;59.9744029247627;
7;GUT;positiv;p;1;1;21;19;p;1;0.7960646000010456;002;ASSG97;2019_Nov_28_1228;iat_vr;59.9744029247627;
7;SCHLECHT;negativ;q;1;2;22;11;q;1;1.0450152999983402;002;ASSG97;2019_Nov_28_1228;iat_vr;59.9744029247627;
7;LAMPE;Gemacht;q;1;3;23;9;q;1;0.783326799999486;002;ASSG97;2019_Nov_28_1228;iat_vr;59.9744029247627;
7;POSITIV;positiv;p;1;4;24;18;p;1;0.7170221000014863;002;ASSG97;2019_Nov_28_1228;iat_vr;59.9744029247627;
7;SCHWACH;negativ;q;1;5;25;14;q;1;0.8028067999985069;002;ASSG97;2019_Nov_28_1228;iat_vr;59.9744029247627;
7;HERVORRAGEND;positiv;p;1;6;26;17;p;1;0.6102701999989222;002;ASSG97;2019_Nov_28_1228;iat_vr;59.9744029247627;
7;EINWANDFREI;positiv;p;1;7;27;16;p;1;0.6972028000000137;002;ASSG97;2019_Nov_28_1228;iat_vr;59.9744029247627;
7;KLEIDER;Gemacht;q;1;8;28;7;p;0;0.7821318999995128;002;ASSG97;2019_Nov_28_1228;iat_vr;59.9744029247627;
7;NEGATIV;negativ;q;1;9;29;12;q;1;1.2162176000001637;002;ASSG97;2019_Nov_28_1228;iat_vr;59.9744029247627;
7;TIER;Natur;p;1;10;30;3;p;1;0.5790577999996458;002;ASSG97;2019_Nov_28_1228;iat_vr;59.9744029247627;
7;STADT;Gemacht;q;1;11;31;6;q;1;0.564122400000997;002;ASSG97;2019_Nov_28_1228;iat_vr;59.9744029247627;
7;BLUME;Natur;p;1;12;32;2;p;1;0.6483413999994809;002;ASSG97;2019_Nov_28_1228;iat_vr;59.9744029247627;
7;COMPUTER;Gemacht;q;1;13;33;8;q;1;0.7135801999993419;002;ASSG97;2019_Nov_28_1228;iat_vr;59.9744029247627;
7;WASSER;Natur;p;1;14;34;1;p;1;0.58156770000096;002;ASSG97;2019_Nov_28_1228;iat_vr;59.9744029247627;
7;SCHÄDLICH;negativ;q;1;15;35;13;q;1;0.5842147000003024;002;ASSG97;2019_Nov_28_1228;iat_vr;59.9744029247627;
7;AUSGEZEICHNET;positiv;p;1;16;36;15;p;1;0.8274981999984448;002;ASSG97;2019_Nov_28_1228;iat_vr;59.9744029247627;
7;BAUM;Natur;p;1;17;37;0;p;1;0.48168230000010226;002;ASSG97;2019_Nov_28_1228;iat_vr;59.9744029247627;
7;STEIN;Natur;p;1;18;38;4;p;1;0.4303901000002952;002;ASSG97;2019_Nov_28_1228;iat_vr;59.9744029247627;
7;SCHLIMM;negativ;q;1;19;39;10;q;1;0.5840310999992653;002;ASSG97;2019_Nov_28_1228;iat_vr;59.9744029247627;
;;;;;;;;;;;002;ASSG97;2019_Nov_28_1228;iat_vr;59.9744029247627;
