Block;Word;Category;CorrResp;trials.thisRepN;trials.thisTrialN;trials.thisN;trials.thisIndex;key_resp_2.keys;key_resp_2.corr;key_resp_2.rt;session;participant;date;expName;frameRate;
1;GEBÄUDE;Gemacht;p;0;0;0;5;p;1;1.9695596999990812;001;ASSS97;2019_Nov_28_1119;iat_vr;60.01435543418207;
1;STEIN;Natur;q;0;1;1;4;q;1;0.8667813000010938;001;ASSS97;2019_Nov_28_1119;iat_vr;60.01435543418207;
1;BAUM;Natur;q;0;2;2;0;q;1;0.7670912000012322;001;ASSS97;2019_Nov_28_1119;iat_vr;60.01435543418207;
1;STADT;Gemacht;p;0;3;3;6;p;1;0.6670141000013246;001;ASSS97;2019_Nov_28_1119;iat_vr;60.01435543418207;
1;KLEIDER;Gemacht;p;0;4;4;7;p;1;0.8169388999995135;001;ASSS97;2019_Nov_28_1119;iat_vr;60.01435543418207;
1;TIER;Natur;q;0;5;5;3;q;1;0.8003227000008337;001;ASSS97;2019_Nov_28_1119;iat_vr;60.01435543418207;
1;LAMPE;Gemacht;p;0;6;6;9;p;1;0.7833496999992349;001;ASSS97;2019_Nov_28_1119;iat_vr;60.01435543418207;
1;BLUME;Natur;q;0;7;7;2;q;1;0.7170384000000922;001;ASSS97;2019_Nov_28_1119;iat_vr;60.01435543418207;
1;COMPUTER;Gemacht;p;0;8;8;8;p;1;0.6502713999998377;001;ASSS97;2019_Nov_28_1119;iat_vr;60.01435543418207;
1;WASSER;Natur;q;0;9;9;1;q;1;0.8336514000002353;001;ASSS97;2019_Nov_28_1119;iat_vr;60.01435543418207;
1;KLEIDER;Gemacht;p;1;0;10;7;p;1;0.8668591999994533;001;ASSS97;2019_Nov_28_1119;iat_vr;60.01435543418207;
1;TIER;Natur;q;1;1;11;3;q;1;0.8838646999993216;001;ASSS97;2019_Nov_28_1119;iat_vr;60.01435543418207;
1;STADT;Gemacht;p;1;2;12;6;p;1;0.6672638000000006;001;ASSS97;2019_Nov_28_1119;iat_vr;60.01435543418207;
1;BLUME;Natur;q;1;3;13;2;q;1;0.6670199000000139;001;ASSS97;2019_Nov_28_1119;iat_vr;60.01435543418207;
1;LAMPE;Gemacht;p;1;4;14;9;p;1;0.6669821999985288;001;ASSS97;2019_Nov_28_1119;iat_vr;60.01435543418207;
1;BAUM;Natur;q;1;5;15;0;q;1;0.6835938000003807;001;ASSS97;2019_Nov_28_1119;iat_vr;60.01435543418207;
1;STEIN;Natur;q;1;6;16;4;q;1;0.6170309000008274;001;ASSS97;2019_Nov_28_1119;iat_vr;60.01435543418207;
1;WASSER;Natur;q;1;7;17;1;q;1;0.5836689000007027;001;ASSS97;2019_Nov_28_1119;iat_vr;60.01435543418207;
1;COMPUTER;Gemacht;p;1;8;18;8;p;1;0.6170520000014221;001;ASSS97;2019_Nov_28_1119;iat_vr;60.01435543418207;
1;GEBÄUDE;Gemacht;p;1;9;19;5;p;1;0.6526284999999916;001;ASSS97;2019_Nov_28_1119;iat_vr;60.01435543418207;
;;;;;;;;;;;001;ASSS97;2019_Nov_28_1119;iat_vr;60.01435543418207;
2;SCHLECHT;negativ;q;0;0;0;1;q;1;0.9488885999999184;001;ASSS97;2019_Nov_28_1119;iat_vr;60.01435543418207;
2;GUT;positiv;p;0;1;1;9;p;1;0.5814686000012443;001;ASSS97;2019_Nov_28_1119;iat_vr;60.01435543418207;
2;AUSGEZEICHNET;positiv;p;0;2;2;5;p;1;0.8733499999998457;001;ASSS97;2019_Nov_28_1119;iat_vr;60.01435543418207;
2;HERVORRAGEND;positiv;p;0;3;3;7;p;1;0.6904308000011952;001;ASSS97;2019_Nov_28_1119;iat_vr;60.01435543418207;
2;SCHWACH;negativ;q;0;4;4;4;q;1;0.6289747999999236;001;ASSS97;2019_Nov_28_1119;iat_vr;60.01435543418207;
2;SCHÄDLICH;negativ;q;0;5;5;3;q;1;0.7227609999990818;001;ASSS97;2019_Nov_28_1119;iat_vr;60.01435543418207;
2;POSITIV;positiv;p;0;6;6;8;p;1;0.7319743000007293;001;ASSS97;2019_Nov_28_1119;iat_vr;60.01435543418207;
2;NEGATIV;negativ;q;0;7;7;2;q;1;0.7146317000006093;001;ASSS97;2019_Nov_28_1119;iat_vr;60.01435543418207;
2;EINWANDFREI;positiv;p;0;8;8;6;p;1;0.7750879000013811;001;ASSS97;2019_Nov_28_1119;iat_vr;60.01435543418207;
2;SCHLIMM;negativ;q;0;9;9;0;q;1;0.8962235999988479;001;ASSS97;2019_Nov_28_1119;iat_vr;60.01435543418207;
2;NEGATIV;negativ;q;1;0;10;2;q;1;0.6799888000005012;001;ASSS97;2019_Nov_28_1119;iat_vr;60.01435543418207;
2;AUSGEZEICHNET;positiv;p;1;1;11;5;p;1;0.719191199999841;001;ASSS97;2019_Nov_28_1119;iat_vr;60.01435543418207;
2;SCHÄDLICH;negativ;q;1;2;12;3;q;1;0.679653999999573;001;ASSS97;2019_Nov_28_1119;iat_vr;60.01435543418207;
2;EINWANDFREI;positiv;p;1;3;13;6;p;1;0.6606635000007373;001;ASSS97;2019_Nov_28_1119;iat_vr;60.01435543418207;
2;GUT;positiv;p;1;4;14;9;p;1;1.0161671999994724;001;ASSS97;2019_Nov_28_1119;iat_vr;60.01435543418207;
2;POSITIV;positiv;p;1;5;15;8;p;1;0.7144981999990705;001;ASSS97;2019_Nov_28_1119;iat_vr;60.01435543418207;
2;SCHWACH;negativ;q;1;6;16;4;q;1;0.7622508000004018;001;ASSS97;2019_Nov_28_1119;iat_vr;60.01435543418207;
2;SCHLIMM;negativ;q;1;7;17;0;q;1;0.7503493999993225;001;ASSS97;2019_Nov_28_1119;iat_vr;60.01435543418207;
2;HERVORRAGEND;positiv;p;1;8;18;7;p;1;1.0601885999985825;001;ASSS97;2019_Nov_28_1119;iat_vr;60.01435543418207;
2;SCHLECHT;negativ;q;1;9;19;1;q;1;0.6513878999994631;001;ASSS97;2019_Nov_28_1119;iat_vr;60.01435543418207;
;;;;;;;;;;;001;ASSS97;2019_Nov_28_1119;iat_vr;60.01435543418207;
3;SCHWACH;negativ;q;0;0;0;4;q;1;1.2516447999987577;001;ASSS97;2019_Nov_28_1119;iat_vr;60.01435543418207;
3;NEGATIV;negativ;q;0;1;1;2;q;1;0.7471764000001713;001;ASSS97;2019_Nov_28_1119;iat_vr;60.01435543418207;
3;EINWANDFREI;positiv;p;0;2;2;6;p;1;1.249491599999601;001;ASSS97;2019_Nov_28_1119;iat_vr;60.01435543418207;
3;LAMPE;Gemacht;p;0;3;3;19;p;1;1.1148228000001836;001;ASSS97;2019_Nov_28_1119;iat_vr;60.01435543418207;
3;STEIN;Natur;q;0;4;4;14;p;0;1.1803966999996192;001;ASSS97;2019_Nov_28_1119;iat_vr;60.01435543418207;
3;BLUME;Natur;q;0;5;5;12;p;0;1.7966983000005712;001;ASSS97;2019_Nov_28_1119;iat_vr;60.01435543418207;
3;BAUM;Natur;q;0;6;6;10;q;1;1.4187025999999605;001;ASSS97;2019_Nov_28_1119;iat_vr;60.01435543418207;
3;KLEIDER;Gemacht;p;0;7;7;17;p;1;0.7968247000007977;001;ASSS97;2019_Nov_28_1119;iat_vr;60.01435543418207;
3;SCHÄDLICH;negativ;q;0;8;8;3;q;1;0.7144999000011012;001;ASSS97;2019_Nov_28_1119;iat_vr;60.01435543418207;
3;SCHLECHT;negativ;q;0;9;9;1;q;1;0.5523702000009507;001;ASSS97;2019_Nov_28_1119;iat_vr;60.01435543418207;
3;GUT;positiv;p;0;10;10;9;p;1;0.6994095999998535;001;ASSS97;2019_Nov_28_1119;iat_vr;60.01435543418207;
3;GEBÄUDE;Gemacht;p;0;11;11;15;q;0;1.2309471999997186;001;ASSS97;2019_Nov_28_1119;iat_vr;60.01435543418207;
3;SCHLIMM;negativ;q;0;12;12;0;p;0;0.485478200000216;001;ASSS97;2019_Nov_28_1119;iat_vr;60.01435543418207;
3;WASSER;Natur;q;0;13;13;11;q;1;1.6647964000003412;001;ASSS97;2019_Nov_28_1119;iat_vr;60.01435543418207;
3;TIER;Natur;q;0;14;14;13;q;1;0.7817120999989129;001;ASSS97;2019_Nov_28_1119;iat_vr;60.01435543418207;
3;STADT;Gemacht;p;0;15;15;16;p;1;0.6963070999991032;001;ASSS97;2019_Nov_28_1119;iat_vr;60.01435543418207;
3;AUSGEZEICHNET;positiv;p;0;16;16;5;p;1;1.259967300000426;001;ASSS97;2019_Nov_28_1119;iat_vr;60.01435543418207;
3;HERVORRAGEND;positiv;p;0;17;17;7;p;1;0.6268047999983537;001;ASSS97;2019_Nov_28_1119;iat_vr;60.01435543418207;
3;POSITIV;positiv;p;0;18;18;8;p;1;0.6975615999999718;001;ASSS97;2019_Nov_28_1119;iat_vr;60.01435543418207;
3;COMPUTER;Gemacht;p;0;19;19;18;p;1;0.8689851999988605;001;ASSS97;2019_Nov_28_1119;iat_vr;60.01435543418207;
;;;;;;;;;;;001;ASSS97;2019_Nov_28_1119;iat_vr;60.01435543418207;
4;STADT;Gemacht;p;0;0;0;16;p;1;2.4654974000004586;001;ASSS97;2019_Nov_28_1119;iat_vr;60.01435543418207;
4;STEIN;Natur;q;0;1;1;14;q;1;0.7818241999993916;001;ASSS97;2019_Nov_28_1119;iat_vr;60.01435543418207;
4;SCHLIMM;negativ;q;0;2;2;0;q;1;0.7124504000003071;001;ASSS97;2019_Nov_28_1119;iat_vr;60.01435543418207;
4;LAMPE;Gemacht;p;0;3;3;19;p;1;0.8142775000014808;001;ASSS97;2019_Nov_28_1119;iat_vr;60.01435543418207;
4;GUT;positiv;p;0;4;4;9;q;0;0.819106400000237;001;ASSS97;2019_Nov_28_1119;iat_vr;60.01435543418207;
4;EINWANDFREI;positiv;p;0;5;5;6;p;1;0.8299565999986953;001;ASSS97;2019_Nov_28_1119;iat_vr;60.01435543418207;
4;NEGATIV;negativ;q;0;6;6;2;q;1;0.6808855999988737;001;ASSS97;2019_Nov_28_1119;iat_vr;60.01435543418207;
4;BAUM;Natur;q;0;7;7;10;q;1;0.9823187999991205;001;ASSS97;2019_Nov_28_1119;iat_vr;60.01435543418207;
4;TIER;Natur;q;0;8;8;13;q;1;0.5637786999996024;001;ASSS97;2019_Nov_28_1119;iat_vr;60.01435543418207;
4;SCHÄDLICH;negativ;q;0;9;9;3;p;0;0.7119658999999956;001;ASSS97;2019_Nov_28_1119;iat_vr;60.01435543418207;
4;SCHWACH;negativ;q;0;10;10;4;q;1;0.8649093000003631;001;ASSS97;2019_Nov_28_1119;iat_vr;60.01435543418207;
4;KLEIDER;Gemacht;p;0;11;11;17;p;1;0.8468405999992683;001;ASSS97;2019_Nov_28_1119;iat_vr;60.01435543418207;
4;AUSGEZEICHNET;positiv;p;0;12;12;5;p;1;0.7273846999996749;001;ASSS97;2019_Nov_28_1119;iat_vr;60.01435543418207;
4;SCHLECHT;negativ;q;0;13;13;1;q;1;0.7971028000010847;001;ASSS97;2019_Nov_28_1119;iat_vr;60.01435543418207;
4;COMPUTER;Gemacht;p;0;14;14;18;p;1;0.6602216999999655;001;ASSS97;2019_Nov_28_1119;iat_vr;60.01435543418207;
4;HERVORRAGEND;positiv;p;0;15;15;7;p;1;0.6692696000009164;001;ASSS97;2019_Nov_28_1119;iat_vr;60.01435543418207;
4;WASSER;Natur;q;0;16;16;11;p;0;0.7976650000000518;001;ASSS97;2019_Nov_28_1119;iat_vr;60.01435543418207;
4;BLUME;Natur;q;0;17;17;12;q;1;0.08167300000059186;001;ASSS97;2019_Nov_28_1119;iat_vr;60.01435543418207;
4;POSITIV;positiv;p;0;18;18;8;q;0;3.1848078000002715;001;ASSS97;2019_Nov_28_1119;iat_vr;60.01435543418207;
4;GEBÄUDE;Gemacht;p;0;19;19;15;p;1;0.131330700000035;001;ASSS97;2019_Nov_28_1119;iat_vr;60.01435543418207;
4;TIER;Natur;q;1;0;20;13;q;1;1.3481499000008625;001;ASSS97;2019_Nov_28_1119;iat_vr;60.01435543418207;
4;BLUME;Natur;q;1;1;21;12;q;1;1.1648543999999674;001;ASSS97;2019_Nov_28_1119;iat_vr;60.01435543418207;
4;POSITIV;positiv;p;1;2;22;8;p;1;2.047304499999882;001;ASSS97;2019_Nov_28_1119;iat_vr;60.01435543418207;
4;KLEIDER;Gemacht;p;1;3;23;17;p;1;0.7951480000010633;001;ASSS97;2019_Nov_28_1119;iat_vr;60.01435543418207;
4;GEBÄUDE;Gemacht;p;1;4;24;15;p;1;0.5469429000004311;001;ASSS97;2019_Nov_28_1119;iat_vr;60.01435543418207;
4;SCHÄDLICH;negativ;q;1;5;25;3;q;1;0.8797379000006913;001;ASSS97;2019_Nov_28_1119;iat_vr;60.01435543418207;
4;BAUM;Natur;q;1;6;26;10;p;0;0.5794069000003219;001;ASSS97;2019_Nov_28_1119;iat_vr;60.01435543418207;
4;SCHWACH;negativ;q;1;7;27;4;q;1;0.8441459999994549;001;ASSS97;2019_Nov_28_1119;iat_vr;60.01435543418207;
4;SCHLIMM;negativ;q;1;8;28;0;q;1;0.6308953999996447;001;ASSS97;2019_Nov_28_1119;iat_vr;60.01435543418207;
4;HERVORRAGEND;positiv;p;1;9;29;7;p;1;0.6781128000002354;001;ASSS97;2019_Nov_28_1119;iat_vr;60.01435543418207;
4;COMPUTER;Gemacht;p;1;10;30;18;p;1;0.6647443000001658;001;ASSS97;2019_Nov_28_1119;iat_vr;60.01435543418207;
4;LAMPE;Gemacht;p;1;11;31;19;p;1;0.6981262000008428;001;ASSS97;2019_Nov_28_1119;iat_vr;60.01435543418207;
4;GUT;positiv;p;1;12;32;9;p;1;0.6496769000004861;001;ASSS97;2019_Nov_28_1119;iat_vr;60.01435543418207;
4;EINWANDFREI;positiv;p;1;13;33;6;p;1;0.57944789999965;001;ASSS97;2019_Nov_28_1119;iat_vr;60.01435543418207;
4;STEIN;Natur;q;1;14;34;14;q;1;0.6488902000000962;001;ASSS97;2019_Nov_28_1119;iat_vr;60.01435543418207;
4;NEGATIV;negativ;q;1;15;35;2;q;1;0.9474258000009286;001;ASSS97;2019_Nov_28_1119;iat_vr;60.01435543418207;
4;SCHLECHT;negativ;q;1;16;36;1;q;1;0.713860099998783;001;ASSS97;2019_Nov_28_1119;iat_vr;60.01435543418207;
4;AUSGEZEICHNET;positiv;p;1;17;37;5;p;1;0.694264400000975;001;ASSS97;2019_Nov_28_1119;iat_vr;60.01435543418207;
4;WASSER;Natur;q;1;18;38;11;q;1;0.7147576000006666;001;ASSS97;2019_Nov_28_1119;iat_vr;60.01435543418207;
4;STADT;Gemacht;p;1;19;39;16;q;0;0.41349739999895974;001;ASSS97;2019_Nov_28_1119;iat_vr;60.01435543418207;
;;;;;;;;;;;001;ASSS97;2019_Nov_28_1119;iat_vr;60.01435543418207;
5;TIER;Natur;p;0;0;0;3;q;0;1.248355800000354;001;ASSS97;2019_Nov_28_1119;iat_vr;60.01435543418207;
5;LAMPE;Gemacht;q;0;1;1;9;q;1;1.3329883000005793;001;ASSS97;2019_Nov_28_1119;iat_vr;60.01435543418207;
5;STADT;Gemacht;q;0;2;2;6;q;1;0.6293511999992916;001;ASSS97;2019_Nov_28_1119;iat_vr;60.01435543418207;
5;STEIN;Natur;p;0;3;3;4;p;1;0.663813699999082;001;ASSS97;2019_Nov_28_1119;iat_vr;60.01435543418207;
5;WASSER;Natur;p;0;4;4;1;p;1;0.5979454000007536;001;ASSS97;2019_Nov_28_1119;iat_vr;60.01435543418207;
5;COMPUTER;Gemacht;q;0;5;5;8;q;1;0.8637860999988334;001;ASSS97;2019_Nov_28_1119;iat_vr;60.01435543418207;
5;GEBÄUDE;Gemacht;q;0;6;6;5;q;1;0.6309746000006271;001;ASSS97;2019_Nov_28_1119;iat_vr;60.01435543418207;
5;BAUM;Natur;p;0;7;7;0;p;1;0.6021220000002359;001;ASSS97;2019_Nov_28_1119;iat_vr;60.01435543418207;
5;BLUME;Natur;p;0;8;8;2;p;1;0.798009500000262;001;ASSS97;2019_Nov_28_1119;iat_vr;60.01435543418207;
5;KLEIDER;Gemacht;q;0;9;9;7;q;1;0.7645319000002928;001;ASSS97;2019_Nov_28_1119;iat_vr;60.01435543418207;
5;GEBÄUDE;Gemacht;q;1;0;10;5;p;0;0.8647424000009778;001;ASSS97;2019_Nov_28_1119;iat_vr;60.01435543418207;
5;LAMPE;Gemacht;q;1;1;11;9;q;1;0.9149709000012081;001;ASSS97;2019_Nov_28_1119;iat_vr;60.01435543418207;
5;COMPUTER;Gemacht;q;1;2;12;8;q;1;0.7968899999996211;001;ASSS97;2019_Nov_28_1119;iat_vr;60.01435543418207;
5;WASSER;Natur;p;1;3;13;1;p;1;0.5961814999991475;001;ASSS97;2019_Nov_28_1119;iat_vr;60.01435543418207;
5;BAUM;Natur;p;1;4;14;0;p;1;0.5823336000012205;001;ASSS97;2019_Nov_28_1119;iat_vr;60.01435543418207;
5;KLEIDER;Gemacht;q;1;5;15;7;q;1;0.6807673000002978;001;ASSS97;2019_Nov_28_1119;iat_vr;60.01435543418207;
5;BLUME;Natur;p;1;6;16;2;p;1;0.5982746999998199;001;ASSS97;2019_Nov_28_1119;iat_vr;60.01435543418207;
5;STADT;Gemacht;q;1;7;17;6;q;1;0.4972674000000552;001;ASSS97;2019_Nov_28_1119;iat_vr;60.01435543418207;
5;TIER;Natur;p;1;8;18;3;q;0;0.6474104999997508;001;ASSS97;2019_Nov_28_1119;iat_vr;60.01435543418207;
5;STEIN;Natur;p;1;9;19;4;p;1;0.12888120000025083;001;ASSS97;2019_Nov_28_1119;iat_vr;60.01435543418207;
;;;;;;;;;;;001;ASSS97;2019_Nov_28_1119;iat_vr;60.01435543418207;
6;AUSGEZEICHNET;positiv;p;0;0;0;15;p;1;1.3690326000014466;001;ASSS97;2019_Nov_28_1119;iat_vr;60.01435543418207;
6;HERVORRAGEND;positiv;p;0;1;1;17;p;1;0.6115176000002975;001;ASSS97;2019_Nov_28_1119;iat_vr;60.01435543418207;
6;TIER;Natur;p;0;2;2;3;q;0;0.6490471000015532;001;ASSS97;2019_Nov_28_1119;iat_vr;60.01435543418207;
6;POSITIV;positiv;p;0;3;3;18;p;1;1.7461724999993748;001;ASSS97;2019_Nov_28_1119;iat_vr;60.01435543418207;
6;GEBÄUDE;Gemacht;q;0;4;4;5;q;1;1.3439228000006551;001;ASSS97;2019_Nov_28_1119;iat_vr;60.01435543418207;
6;EINWANDFREI;positiv;p;0;5;5;16;p;1;2.1136812000004284;001;ASSS97;2019_Nov_28_1119;iat_vr;60.01435543418207;
6;LAMPE;Gemacht;q;0;6;6;9;q;1;1.1658659000004263;001;ASSS97;2019_Nov_28_1119;iat_vr;60.01435543418207;
6;COMPUTER;Gemacht;q;0;7;7;8;q;1;0.5518570999993244;001;ASSS97;2019_Nov_28_1119;iat_vr;60.01435543418207;
6;BLUME;Natur;p;0;8;8;2;q;0;0.43072509999910835;001;ASSS97;2019_Nov_28_1119;iat_vr;60.01435543418207;
6;NEGATIV;negativ;q;0;9;9;12;p;0;0.13005929999962973;001;ASSS97;2019_Nov_28_1119;iat_vr;60.01435543418207;
6;SCHLECHT;negativ;q;0;10;10;11;q;1;1.145697599999039;001;ASSS97;2019_Nov_28_1119;iat_vr;60.01435543418207;
6;GUT;positiv;p;0;11;11;19;p;1;0.7489826999990328;001;ASSS97;2019_Nov_28_1119;iat_vr;60.01435543418207;
6;SCHLIMM;negativ;q;0;12;12;10;q;1;0.7685634000008577;001;ASSS97;2019_Nov_28_1119;iat_vr;60.01435543418207;
6;STEIN;Natur;p;0;13;13;4;p;1;1.0471582999998645;001;ASSS97;2019_Nov_28_1119;iat_vr;60.01435543418207;
6;STADT;Gemacht;q;0;14;14;6;q;1;0.681517500001064;001;ASSS97;2019_Nov_28_1119;iat_vr;60.01435543418207;
6;SCHWACH;negativ;q;0;15;15;14;q;1;0.7809274999999616;001;ASSS97;2019_Nov_28_1119;iat_vr;60.01435543418207;
6;KLEIDER;Gemacht;q;0;16;16;7;q;1;1.3475628000014694;001;ASSS97;2019_Nov_28_1119;iat_vr;60.01435543418207;
6;WASSER;Natur;p;0;17;17;1;p;1;0.8816435999997339;001;ASSS97;2019_Nov_28_1119;iat_vr;60.01435543418207;
6;BAUM;Natur;p;0;18;18;0;p;1;0.6650410000002012;001;ASSS97;2019_Nov_28_1119;iat_vr;60.01435543418207;
6;SCHÄDLICH;negativ;q;0;19;19;13;q;1;0.7297491000008449;001;ASSS97;2019_Nov_28_1119;iat_vr;60.01435543418207;
;;;;;;;;;;;001;ASSS97;2019_Nov_28_1119;iat_vr;60.01435543418207;
7;BAUM;Natur;p;0;0;0;0;p;1;2.642762000001312;001;ASSS97;2019_Nov_28_1119;iat_vr;60.01435543418207;
7;SCHLIMM;negativ;q;0;1;1;10;q;1;0.7351089000003412;001;ASSS97;2019_Nov_28_1119;iat_vr;60.01435543418207;
7;SCHWACH;negativ;q;0;2;2;14;q;1;1.414323200000581;001;ASSS97;2019_Nov_28_1119;iat_vr;60.01435543418207;
7;STADT;Gemacht;q;0;3;3;6;q;1;0.8982410000007803;001;ASSS97;2019_Nov_28_1119;iat_vr;60.01435543418207;
7;SCHLECHT;negativ;q;0;4;4;11;q;1;0.731974899999841;001;ASSS97;2019_Nov_28_1119;iat_vr;60.01435543418207;
7;KLEIDER;Gemacht;q;0;5;5;7;q;1;0.7974712000013824;001;ASSS97;2019_Nov_28_1119;iat_vr;60.01435543418207;
7;GUT;positiv;p;0;6;6;19;p;1;0.5691080000015063;001;ASSS97;2019_Nov_28_1119;iat_vr;60.01435543418207;
7;SCHÄDLICH;negativ;q;0;7;7;13;q;1;0.5976549999995768;001;ASSS97;2019_Nov_28_1119;iat_vr;60.01435543418207;
7;AUSGEZEICHNET;positiv;p;0;8;8;15;p;1;0.5773035000001983;001;ASSS97;2019_Nov_28_1119;iat_vr;60.01435543418207;
7;POSITIV;positiv;p;0;9;9;18;q;0;0.6677366999992955;001;ASSS97;2019_Nov_28_1119;iat_vr;60.01435543418207;
7;GEBÄUDE;Gemacht;q;0;10;10;5;p;0;0.31436159999975644;001;ASSS97;2019_Nov_28_1119;iat_vr;60.01435543418207;
7;LAMPE;Gemacht;q;0;11;11;9;q;1;0.865500099998826;001;ASSS97;2019_Nov_28_1119;iat_vr;60.01435543418207;
7;NEGATIV;negativ;q;0;12;12;12;q;1;0.5831551999999647;001;ASSS97;2019_Nov_28_1119;iat_vr;60.01435543418207;
7;EINWANDFREI;positiv;p;0;13;13;16;p;1;0.7083490999993955;001;ASSS97;2019_Nov_28_1119;iat_vr;60.01435543418207;
7;COMPUTER;Gemacht;q;0;14;14;8;q;1;0.6806071999999403;001;ASSS97;2019_Nov_28_1119;iat_vr;60.01435543418207;
7;STEIN;Natur;p;0;15;15;4;p;1;0.8770023999986734;001;ASSS97;2019_Nov_28_1119;iat_vr;60.01435543418207;
7;WASSER;Natur;p;0;16;16;1;p;1;0.46391960000073595;001;ASSS97;2019_Nov_28_1119;iat_vr;60.01435543418207;
7;HERVORRAGEND;positiv;p;0;17;17;17;p;1;0.8450735999995231;001;ASSS97;2019_Nov_28_1119;iat_vr;60.01435543418207;
7;BLUME;Natur;p;0;18;18;2;p;1;0.5330635000009352;001;ASSS97;2019_Nov_28_1119;iat_vr;60.01435543418207;
7;TIER;Natur;p;0;19;19;3;p;1;0.5988230000002659;001;ASSS97;2019_Nov_28_1119;iat_vr;60.01435543418207;
7;SCHWACH;negativ;q;1;0;20;14;q;1;0.730501699999877;001;ASSS97;2019_Nov_28_1119;iat_vr;60.01435543418207;
7;SCHÄDLICH;negativ;q;1;1;21;13;p;0;0.558986800000639;001;ASSS97;2019_Nov_28_1119;iat_vr;60.01435543418207;
7;KLEIDER;Gemacht;q;1;2;22;7;q;1;0.047309600000517094;001;ASSS97;2019_Nov_28_1119;iat_vr;60.01435543418207;
7;GEBÄUDE;Gemacht;q;1;3;23;5;q;1;1.2335586999997759;001;ASSS97;2019_Nov_28_1119;iat_vr;60.01435543418207;
7;AUSGEZEICHNET;positiv;p;1;4;24;15;p;1;0.6517119000000093;001;ASSS97;2019_Nov_28_1119;iat_vr;60.01435543418207;
7;GUT;positiv;p;1;5;25;19;p;1;0.7320450000006531;001;ASSS97;2019_Nov_28_1119;iat_vr;60.01435543418207;
7;BLUME;Natur;p;1;6;26;2;p;1;0.5819830000000366;001;ASSS97;2019_Nov_28_1119;iat_vr;60.01435543418207;
7;STEIN;Natur;p;1;7;27;4;p;1;0.5814064000005601;001;ASSS97;2019_Nov_28_1119;iat_vr;60.01435543418207;
7;COMPUTER;Gemacht;q;1;8;28;8;q;1;0.5981062999999267;001;ASSS97;2019_Nov_28_1119;iat_vr;60.01435543418207;
7;BAUM;Natur;p;1;9;29;0;p;1;0.6156590000009601;001;ASSS97;2019_Nov_28_1119;iat_vr;60.01435543418207;
7;EINWANDFREI;positiv;p;1;10;30;16;p;1;0.6961866000001464;001;ASSS97;2019_Nov_28_1119;iat_vr;60.01435543418207;
7;WASSER;Natur;p;1;11;31;1;p;1;0.5813388999995368;001;ASSS97;2019_Nov_28_1119;iat_vr;60.01435543418207;
7;NEGATIV;negativ;q;1;12;32;12;q;1;0.6693343999995705;001;ASSS97;2019_Nov_28_1119;iat_vr;60.01435543418207;
7;SCHLECHT;negativ;q;1;13;33;11;q;1;0.6974566999997478;001;ASSS97;2019_Nov_28_1119;iat_vr;60.01435543418207;
7;STADT;Gemacht;q;1;14;34;6;p;0;0.6489257999983238;001;ASSS97;2019_Nov_28_1119;iat_vr;60.01435543418207;
7;POSITIV;positiv;p;1;15;35;18;p;1;0.6622860999996192;001;ASSS97;2019_Nov_28_1119;iat_vr;60.01435543418207;
7;LAMPE;Gemacht;q;1;16;36;9;q;1;2.0962085999999545;001;ASSS97;2019_Nov_28_1119;iat_vr;60.01435543418207;
7;SCHLIMM;negativ;q;1;17;37;10;q;1;0.5962952999998379;001;ASSS97;2019_Nov_28_1119;iat_vr;60.01435543418207;
7;HERVORRAGEND;positiv;p;1;18;38;17;p;1;0.6114075000004959;001;ASSS97;2019_Nov_28_1119;iat_vr;60.01435543418207;
7;TIER;Natur;p;1;19;39;3;p;1;0.6326466999998956;001;ASSS97;2019_Nov_28_1119;iat_vr;60.01435543418207;
;;;;;;;;;;;001;ASSS97;2019_Nov_28_1119;iat_vr;60.01435543418207;
