Block;Word;Category;CorrResp;trials.thisRepN;trials.thisTrialN;trials.thisN;trials.thisIndex;key_resp_2.keys;key_resp_2.corr;key_resp_2.rt;session;participant;date;expName;frameRate;
1;BAUM;Natur;q;0;0;0;0;q;1;1.7987057999998797;001;FSJS96;2019_Nov_27_1805;iat_vr;60.076405173399635;
1;STEIN;Natur;q;0;1;1;4;q;1;1.133790299994871;001;FSJS96;2019_Nov_27_1805;iat_vr;60.076405173399635;
1;STADT;Gemacht;p;0;2;2;6;p;1;0.8119516000006115;001;FSJS96;2019_Nov_27_1805;iat_vr;60.076405173399635;
1;BLUME;Natur;q;0;3;3;2;q;1;0.7299339000019245;001;FSJS96;2019_Nov_27_1805;iat_vr;60.076405173399635;
1;WASSER;Natur;q;0;4;4;1;q;1;1.025114999996731;001;FSJS96;2019_Nov_27_1805;iat_vr;60.076405173399635;
1;LAMPE;Gemacht;p;0;5;5;9;p;1;0.7623313000003691;001;FSJS96;2019_Nov_27_1805;iat_vr;60.076405173399635;
1;TIER;Natur;q;0;6;6;3;q;1;0.5987077000027057;001;FSJS96;2019_Nov_27_1805;iat_vr;60.076405173399635;
1;GEBÄUDE;Gemacht;p;0;7;7;5;p;1;0.8278021000005538;001;FSJS96;2019_Nov_27_1805;iat_vr;60.076405173399635;
1;COMPUTER;Gemacht;p;0;8;8;8;p;1;0.8080700999998953;001;FSJS96;2019_Nov_27_1805;iat_vr;60.076405173399635;
1;KLEIDER;Gemacht;p;0;9;9;7;p;1;0.8108294999983627;001;FSJS96;2019_Nov_27_1805;iat_vr;60.076405173399635;
1;WASSER;Natur;q;1;0;10;1;q;1;0.8965183000036632;001;FSJS96;2019_Nov_27_1805;iat_vr;60.076405173399635;
1;KLEIDER;Gemacht;p;1;1;11;7;p;1;0.8470570999998017;001;FSJS96;2019_Nov_27_1805;iat_vr;60.076405173399635;
1;GEBÄUDE;Gemacht;p;1;2;12;5;p;1;1.9145930000013323;001;FSJS96;2019_Nov_27_1805;iat_vr;60.076405173399635;
1;LAMPE;Gemacht;p;1;3;13;9;p;1;0.696767399997043;001;FSJS96;2019_Nov_27_1805;iat_vr;60.076405173399635;
1;STEIN;Natur;q;1;4;14;4;q;1;0.697234400002344;001;FSJS96;2019_Nov_27_1805;iat_vr;60.076405173399635;
1;BLUME;Natur;q;1;5;15;2;q;1;1.298684699999285;001;FSJS96;2019_Nov_27_1805;iat_vr;60.076405173399635;
1;TIER;Natur;q;1;6;16;3;q;1;0.5954950000013923;001;FSJS96;2019_Nov_27_1805;iat_vr;60.076405173399635;
1;COMPUTER;Gemacht;p;1;7;17;8;p;1;0.5807701000012457;001;FSJS96;2019_Nov_27_1805;iat_vr;60.076405173399635;
1;STADT;Gemacht;p;1;8;18;6;p;1;0.7330103999993298;001;FSJS96;2019_Nov_27_1805;iat_vr;60.076405173399635;
1;BAUM;Natur;q;1;9;19;0;q;1;0.8331852000046638;001;FSJS96;2019_Nov_27_1805;iat_vr;60.076405173399635;
;;;;;;;;;;;001;FSJS96;2019_Nov_27_1805;iat_vr;60.076405173399635;
2;NEGATIV;negativ;q;0;0;0;2;q;1;1.0629556999992928;001;FSJS96;2019_Nov_27_1805;iat_vr;60.076405173399635;
2;EINWANDFREI;positiv;p;0;1;1;6;p;1;3.4593811000013375;001;FSJS96;2019_Nov_27_1805;iat_vr;60.076405173399635;
2;POSITIV;positiv;p;0;2;2;8;p;1;0.6640932000009343;001;FSJS96;2019_Nov_27_1805;iat_vr;60.076405173399635;
2;HERVORRAGEND;positiv;p;0;3;3;7;p;1;0.6901627000042936;001;FSJS96;2019_Nov_27_1805;iat_vr;60.076405173399635;
2;SCHÄDLICH;negativ;q;0;4;4;3;q;1;0.9108212999999523;001;FSJS96;2019_Nov_27_1805;iat_vr;60.076405173399635;
2;AUSGEZEICHNET;positiv;p;0;5;5;5;p;1;0.684376400000474;001;FSJS96;2019_Nov_27_1805;iat_vr;60.076405173399635;
2;GUT;positiv;p;0;6;6;9;p;1;0.598119800000859;001;FSJS96;2019_Nov_27_1805;iat_vr;60.076405173399635;
2;SCHLECHT;negativ;q;0;7;7;1;q;1;0.5444146000008914;001;FSJS96;2019_Nov_27_1805;iat_vr;60.076405173399635;
2;SCHWACH;negativ;q;0;8;8;4;q;1;0.5807411999994656;001;FSJS96;2019_Nov_27_1805;iat_vr;60.076405173399635;
2;SCHLIMM;negativ;q;0;9;9;0;q;1;0.49688850000529783;001;FSJS96;2019_Nov_27_1805;iat_vr;60.076405173399635;
2;EINWANDFREI;positiv;p;1;0;10;6;p;1;0.846170799995889;001;FSJS96;2019_Nov_27_1805;iat_vr;60.076405173399635;
2;SCHLECHT;negativ;q;1;1;11;1;q;1;0.8812550000002375;001;FSJS96;2019_Nov_27_1805;iat_vr;60.076405173399635;
2;SCHWACH;negativ;q;1;2;12;4;q;1;0.48096369999984745;001;FSJS96;2019_Nov_27_1805;iat_vr;60.076405173399635;
2;HERVORRAGEND;positiv;p;1;3;13;7;p;1;0.7479932999995071;001;FSJS96;2019_Nov_27_1805;iat_vr;60.076405173399635;
2;SCHLIMM;negativ;q;1;4;14;0;q;1;0.8314704000003985;001;FSJS96;2019_Nov_27_1805;iat_vr;60.076405173399635;
2;POSITIV;positiv;p;1;5;15;8;p;1;0.5486810000002151;001;FSJS96;2019_Nov_27_1805;iat_vr;60.076405173399635;
2;AUSGEZEICHNET;positiv;p;1;6;16;5;p;1;0.7627210999999079;001;FSJS96;2019_Nov_27_1805;iat_vr;60.076405173399635;
2;GUT;positiv;p;1;7;17;9;p;1;0.5995373999976437;001;FSJS96;2019_Nov_27_1805;iat_vr;60.076405173399635;
2;SCHÄDLICH;negativ;q;1;8;18;3;q;1;0.5669892000005348;001;FSJS96;2019_Nov_27_1805;iat_vr;60.076405173399635;
2;NEGATIV;negativ;q;1;9;19;2;q;1;0.648156299997936;001;FSJS96;2019_Nov_27_1805;iat_vr;60.076405173399635;
;;;;;;;;;;;001;FSJS96;2019_Nov_27_1805;iat_vr;60.076405173399635;
3;POSITIV;positiv;p;0;0;0;8;p;1;0.9715140999978757;001;FSJS96;2019_Nov_27_1805;iat_vr;60.076405173399635;
3;BAUM;Natur;q;0;1;1;10;q;1;1.3647487999987788;001;FSJS96;2019_Nov_27_1805;iat_vr;60.076405173399635;
3;COMPUTER;Gemacht;p;0;2;2;18;p;1;0.9804355999949621;001;FSJS96;2019_Nov_27_1805;iat_vr;60.076405173399635;
3;SCHLIMM;negativ;q;0;3;3;0;q;1;1.3638284000044223;001;FSJS96;2019_Nov_27_1805;iat_vr;60.076405173399635;
3;EINWANDFREI;positiv;p;0;4;4;6;p;1;2.7772830999965663;001;FSJS96;2019_Nov_27_1805;iat_vr;60.076405173399635;
3;AUSGEZEICHNET;positiv;p;0;5;5;5;p;1;0.6630672999963281;001;FSJS96;2019_Nov_27_1805;iat_vr;60.076405173399635;
3;BLUME;Natur;q;0;6;6;12;q;1;1.4314330000051996;001;FSJS96;2019_Nov_27_1805;iat_vr;60.076405173399635;
3;LAMPE;Gemacht;p;0;7;7;19;p;1;0.7865327000035904;001;FSJS96;2019_Nov_27_1805;iat_vr;60.076405173399635;
3;NEGATIV;negativ;q;0;8;8;2;q;1;1.4630154999977094;001;FSJS96;2019_Nov_27_1805;iat_vr;60.076405173399635;
3;KLEIDER;Gemacht;p;0;9;9;17;p;1;1.047978200003854;001;FSJS96;2019_Nov_27_1805;iat_vr;60.076405173399635;
3;SCHWACH;negativ;q;0;10;10;4;q;1;0.6783966000002692;001;FSJS96;2019_Nov_27_1805;iat_vr;60.076405173399635;
3;GEBÄUDE;Gemacht;p;0;11;11;15;p;1;1.0311384000015096;001;FSJS96;2019_Nov_27_1805;iat_vr;60.076405173399635;
3;SCHLECHT;negativ;q;0;12;12;1;q;1;0.7807207000005292;001;FSJS96;2019_Nov_27_1805;iat_vr;60.076405173399635;
3;TIER;Natur;q;0;13;13;13;q;1;1.8141013000058592;001;FSJS96;2019_Nov_27_1805;iat_vr;60.076405173399635;
3;SCHÄDLICH;negativ;q;0;14;14;3;q;1;1.4850035999988904;001;FSJS96;2019_Nov_27_1805;iat_vr;60.076405173399635;
3;GUT;positiv;p;0;15;15;9;p;1;0.8322561000022688;001;FSJS96;2019_Nov_27_1805;iat_vr;60.076405173399635;
3;STADT;Gemacht;p;0;16;16;16;p;1;0.9492888999957358;001;FSJS96;2019_Nov_27_1805;iat_vr;60.076405173399635;
3;STEIN;Natur;q;0;17;17;14;q;1;1.0151927999977488;001;FSJS96;2019_Nov_27_1805;iat_vr;60.076405173399635;
3;HERVORRAGEND;positiv;p;0;18;18;7;p;1;1.076109000001452;001;FSJS96;2019_Nov_27_1805;iat_vr;60.076405173399635;
3;WASSER;Natur;q;0;19;19;11;q;1;1.8979650999972364;001;FSJS96;2019_Nov_27_1805;iat_vr;60.076405173399635;
;;;;;;;;;;;001;FSJS96;2019_Nov_27_1805;iat_vr;60.076405173399635;
4;KLEIDER;Gemacht;p;0;0;0;17;p;1;0.9387792999987141;001;FSJS96;2019_Nov_27_1805;iat_vr;60.076405173399635;
4;SCHWACH;negativ;q;0;1;1;4;q;1;0.7166811999995844;001;FSJS96;2019_Nov_27_1805;iat_vr;60.076405173399635;
4;BAUM;Natur;q;0;2;2;10;p;0;1.4488533000039752;001;FSJS96;2019_Nov_27_1805;iat_vr;60.076405173399635;
4;SCHLIMM;negativ;q;0;3;3;0;q;1;0.9134181999979774;001;FSJS96;2019_Nov_27_1805;iat_vr;60.076405173399635;
4;POSITIV;positiv;p;0;4;4;8;p;1;1.0477481999987504;001;FSJS96;2019_Nov_27_1805;iat_vr;60.076405173399635;
4;BLUME;Natur;q;0;5;5;12;q;1;1.6300903000010294;001;FSJS96;2019_Nov_27_1805;iat_vr;60.076405173399635;
4;LAMPE;Gemacht;p;0;6;6;19;p;1;1.3302075000028708;001;FSJS96;2019_Nov_27_1805;iat_vr;60.076405173399635;
4;GEBÄUDE;Gemacht;p;0;7;7;15;p;1;1.0813894999955664;001;FSJS96;2019_Nov_27_1805;iat_vr;60.076405173399635;
4;NEGATIV;negativ;q;0;8;8;2;q;1;0.7140614000018104;001;FSJS96;2019_Nov_27_1805;iat_vr;60.076405173399635;
4;STEIN;Natur;q;0;9;9;14;p;0;1.9646569000033196;001;FSJS96;2019_Nov_27_1805;iat_vr;60.076405173399635;
4;STADT;Gemacht;p;0;10;10;16;p;1;1.37986169999931;001;FSJS96;2019_Nov_27_1805;iat_vr;60.076405173399635;
4;AUSGEZEICHNET;positiv;p;0;11;11;5;p;1;1.0633461000034004;001;FSJS96;2019_Nov_27_1805;iat_vr;60.076405173399635;
4;SCHLECHT;negativ;q;0;12;12;1;q;1;1.214324900000065;001;FSJS96;2019_Nov_27_1805;iat_vr;60.076405173399635;
4;SCHÄDLICH;negativ;q;0;13;13;3;q;1;0.5779289999991306;001;FSJS96;2019_Nov_27_1805;iat_vr;60.076405173399635;
4;GUT;positiv;p;0;14;14;9;p;1;1.4812512999997125;001;FSJS96;2019_Nov_27_1805;iat_vr;60.076405173399635;
4;EINWANDFREI;positiv;p;0;15;15;6;p;1;1.911098700002185;001;FSJS96;2019_Nov_27_1805;iat_vr;60.076405173399635;
4;HERVORRAGEND;positiv;p;0;16;16;7;p;1;0.5455583000002662;001;FSJS96;2019_Nov_27_1805;iat_vr;60.076405173399635;
4;WASSER;Natur;q;0;17;17;11;q;1;0.9478721999985282;001;FSJS96;2019_Nov_27_1805;iat_vr;60.076405173399635;
4;COMPUTER;Gemacht;p;0;18;18;18;p;1;0.7954278999968665;001;FSJS96;2019_Nov_27_1805;iat_vr;60.076405173399635;
4;TIER;Natur;q;0;19;19;13;q;1;0.8816921999969054;001;FSJS96;2019_Nov_27_1805;iat_vr;60.076405173399635;
4;BAUM;Natur;q;1;0;20;10;q;1;0.4821120000051451;001;FSJS96;2019_Nov_27_1805;iat_vr;60.076405173399635;
4;STEIN;Natur;q;1;1;21;14;q;1;0.5800406999987899;001;FSJS96;2019_Nov_27_1805;iat_vr;60.076405173399635;
4;SCHWACH;negativ;q;1;2;22;4;q;1;1.295137799999793;001;FSJS96;2019_Nov_27_1805;iat_vr;60.076405173399635;
4;SCHLECHT;negativ;q;1;3;23;1;q;1;0.530210500000976;001;FSJS96;2019_Nov_27_1805;iat_vr;60.076405173399635;
4;SCHÄDLICH;negativ;q;1;4;24;3;q;1;0.9799665000027744;001;FSJS96;2019_Nov_27_1805;iat_vr;60.076405173399635;
4;POSITIV;positiv;p;1;5;25;8;p;1;0.8461295000015525;001;FSJS96;2019_Nov_27_1805;iat_vr;60.076405173399635;
4;NEGATIV;negativ;q;1;6;26;2;q;1;0.6975421000024653;001;FSJS96;2019_Nov_27_1805;iat_vr;60.076405173399635;
4;KLEIDER;Gemacht;p;1;7;27;17;p;1;0.945317800003977;001;FSJS96;2019_Nov_27_1805;iat_vr;60.076405173399635;
4;GUT;positiv;p;1;8;28;9;p;1;0.9968320999978459;001;FSJS96;2019_Nov_27_1805;iat_vr;60.076405173399635;
4;HERVORRAGEND;positiv;p;1;9;29;7;p;1;0.5597424999941722;001;FSJS96;2019_Nov_27_1805;iat_vr;60.076405173399635;
4;TIER;Natur;q;1;10;30;13;q;1;0.7988620000032824;001;FSJS96;2019_Nov_27_1805;iat_vr;60.076405173399635;
4;EINWANDFREI;positiv;p;1;11;31;6;p;1;1.1021872999990592;001;FSJS96;2019_Nov_27_1805;iat_vr;60.076405173399635;
4;GEBÄUDE;Gemacht;p;1;12;32;15;p;1;1.1321169000002556;001;FSJS96;2019_Nov_27_1805;iat_vr;60.076405173399635;
4;COMPUTER;Gemacht;p;1;13;33;18;p;1;1.1261020000019926;001;FSJS96;2019_Nov_27_1805;iat_vr;60.076405173399635;
4;LAMPE;Gemacht;p;1;14;34;19;p;1;0.5487709000008181;001;FSJS96;2019_Nov_27_1805;iat_vr;60.076405173399635;
4;AUSGEZEICHNET;positiv;p;1;15;35;5;p;1;0.6650898999942001;001;FSJS96;2019_Nov_27_1805;iat_vr;60.076405173399635;
4;WASSER;Natur;q;1;16;36;11;q;1;1.179087199998321;001;FSJS96;2019_Nov_27_1805;iat_vr;60.076405173399635;
4;SCHLIMM;negativ;q;1;17;37;0;q;1;1.1165691999995033;001;FSJS96;2019_Nov_27_1805;iat_vr;60.076405173399635;
4;STADT;Gemacht;p;1;18;38;16;p;1;0.7702349000028335;001;FSJS96;2019_Nov_27_1805;iat_vr;60.076405173399635;
4;BLUME;Natur;q;1;19;39;12;p;0;0.9973196999999345;001;FSJS96;2019_Nov_27_1805;iat_vr;60.076405173399635;
;;;;;;;;;;;001;FSJS96;2019_Nov_27_1805;iat_vr;60.076405173399635;
5;STEIN;Natur;p;0;0;0;4;q;0;1.9374269999971148;001;FSJS96;2019_Nov_27_1805;iat_vr;60.076405173399635;
5;STADT;Gemacht;q;0;1;1;6;q;1;5.130192600001465;001;FSJS96;2019_Nov_27_1805;iat_vr;60.076405173399635;
5;BAUM;Natur;p;0;2;2;0;p;1;0.7316567000016221;001;FSJS96;2019_Nov_27_1805;iat_vr;60.076405173399635;
5;BLUME;Natur;p;0;3;3;2;p;1;0.6127168000020902;001;FSJS96;2019_Nov_27_1805;iat_vr;60.076405173399635;
5;LAMPE;Gemacht;q;0;4;4;9;q;1;0.9466354999967734;001;FSJS96;2019_Nov_27_1805;iat_vr;60.076405173399635;
5;WASSER;Natur;p;0;5;5;1;p;1;0.8323289000036311;001;FSJS96;2019_Nov_27_1805;iat_vr;60.076405173399635;
5;COMPUTER;Gemacht;q;0;6;6;8;q;1;0.6767583999971976;001;FSJS96;2019_Nov_27_1805;iat_vr;60.076405173399635;
5;GEBÄUDE;Gemacht;q;0;7;7;5;q;1;0.6279807000028086;001;FSJS96;2019_Nov_27_1805;iat_vr;60.076405173399635;
5;TIER;Natur;p;0;8;8;3;p;1;1.132841599996027;001;FSJS96;2019_Nov_27_1805;iat_vr;60.076405173399635;
5;KLEIDER;Gemacht;q;0;9;9;7;q;1;0.5970729000036954;001;FSJS96;2019_Nov_27_1805;iat_vr;60.076405173399635;
5;TIER;Natur;p;1;0;10;3;p;1;0.5792201000003843;001;FSJS96;2019_Nov_27_1805;iat_vr;60.076405173399635;
5;KLEIDER;Gemacht;q;1;1;11;7;q;1;0.5644313999946462;001;FSJS96;2019_Nov_27_1805;iat_vr;60.076405173399635;
5;STADT;Gemacht;q;1;2;12;6;q;1;0.6127549000011641;001;FSJS96;2019_Nov_27_1805;iat_vr;60.076405173399635;
5;LAMPE;Gemacht;q;1;3;13;9;q;1;0.9982926999946358;001;FSJS96;2019_Nov_27_1805;iat_vr;60.076405173399635;
5;WASSER;Natur;p;1;4;14;1;p;1;0.5954956999994465;001;FSJS96;2019_Nov_27_1805;iat_vr;60.076405173399635;
5;STEIN;Natur;p;1;5;15;4;p;1;0.8478366000053938;001;FSJS96;2019_Nov_27_1805;iat_vr;60.076405173399635;
5;GEBÄUDE;Gemacht;q;1;6;16;5;q;1;0.732755700002599;001;FSJS96;2019_Nov_27_1805;iat_vr;60.076405173399635;
5;BAUM;Natur;p;1;7;17;0;p;1;0.9805004000008921;001;FSJS96;2019_Nov_27_1805;iat_vr;60.076405173399635;
5;BLUME;Natur;p;1;8;18;2;p;1;0.5481159999981173;001;FSJS96;2019_Nov_27_1805;iat_vr;60.076405173399635;
5;COMPUTER;Gemacht;q;1;9;19;8;q;1;0.7314643999998225;001;FSJS96;2019_Nov_27_1805;iat_vr;60.076405173399635;
;;;;;;;;;;;001;FSJS96;2019_Nov_27_1805;iat_vr;60.076405173399635;
6;BLUME;Natur;p;0;0;0;2;p;1;0.9024702999959118;001;FSJS96;2019_Nov_27_1805;iat_vr;60.076405173399635;
6;AUSGEZEICHNET;positiv;p;0;1;1;15;p;1;0.7311112999959732;001;FSJS96;2019_Nov_27_1805;iat_vr;60.076405173399635;
6;SCHLIMM;negativ;q;0;2;2;10;q;1;0.88041570000496;001;FSJS96;2019_Nov_27_1805;iat_vr;60.076405173399635;
6;HERVORRAGEND;positiv;p;0;3;3;17;p;1;0.7765939999953844;001;FSJS96;2019_Nov_27_1805;iat_vr;60.076405173399635;
6;SCHWACH;negativ;q;0;4;4;14;q;1;1.0473579000026803;001;FSJS96;2019_Nov_27_1805;iat_vr;60.076405173399635;
6;TIER;Natur;p;0;5;5;3;p;1;0.8008530000006431;001;FSJS96;2019_Nov_27_1805;iat_vr;60.076405173399635;
6;LAMPE;Gemacht;q;0;6;6;9;q;1;0.630103000003146;001;FSJS96;2019_Nov_27_1805;iat_vr;60.076405173399635;
6;SCHLECHT;negativ;q;0;7;7;11;q;1;0.7779069000025629;001;FSJS96;2019_Nov_27_1805;iat_vr;60.076405173399635;
6;WASSER;Natur;p;0;8;8;1;p;1;0.810377800000424;001;FSJS96;2019_Nov_27_1805;iat_vr;60.076405173399635;
6;NEGATIV;negativ;q;0;9;9;12;q;1;1.0291354000000865;001;FSJS96;2019_Nov_27_1805;iat_vr;60.076405173399635;
6;BAUM;Natur;p;0;10;10;0;p;1;0.5493900000001304;001;FSJS96;2019_Nov_27_1805;iat_vr;60.076405173399635;
6;COMPUTER;Gemacht;q;0;11;11;8;q;1;0.914864900005341;001;FSJS96;2019_Nov_27_1805;iat_vr;60.076405173399635;
6;POSITIV;positiv;p;0;12;12;18;p;1;0.782444000004034;001;FSJS96;2019_Nov_27_1805;iat_vr;60.076405173399635;
6;EINWANDFREI;positiv;p;0;13;13;16;p;1;0.6976420999999391;001;FSJS96;2019_Nov_27_1805;iat_vr;60.076405173399635;
6;STADT;Gemacht;q;0;14;14;6;q;1;0.9157259999992675;001;FSJS96;2019_Nov_27_1805;iat_vr;60.076405173399635;
6;GEBÄUDE;Gemacht;q;0;15;15;5;q;1;1.4292664000022341;001;FSJS96;2019_Nov_27_1805;iat_vr;60.076405173399635;
6;SCHÄDLICH;negativ;q;0;16;16;13;q;1;0.5939346000013757;001;FSJS96;2019_Nov_27_1805;iat_vr;60.076405173399635;
6;GUT;positiv;p;0;17;17;19;p;1;0.8160257000054116;001;FSJS96;2019_Nov_27_1805;iat_vr;60.076405173399635;
6;KLEIDER;Gemacht;q;0;18;18;7;q;1;0.6788813000021037;001;FSJS96;2019_Nov_27_1805;iat_vr;60.076405173399635;
6;STEIN;Natur;p;0;19;19;4;p;1;0.7799782000001869;001;FSJS96;2019_Nov_27_1805;iat_vr;60.076405173399635;
;;;;;;;;;;;001;FSJS96;2019_Nov_27_1805;iat_vr;60.076405173399635;
7;HERVORRAGEND;positiv;p;0;0;0;17;p;1;0.904083499997796;001;FSJS96;2019_Nov_27_1805;iat_vr;60.076405173399635;
7;SCHLECHT;negativ;q;0;1;1;11;q;1;0.5647993999955361;001;FSJS96;2019_Nov_27_1805;iat_vr;60.076405173399635;
7;POSITIV;positiv;p;0;2;2;18;p;1;0.5782879999969737;001;FSJS96;2019_Nov_27_1805;iat_vr;60.076405173399635;
7;STADT;Gemacht;q;0;3;3;6;q;1;0.9152840000024298;001;FSJS96;2019_Nov_27_1805;iat_vr;60.076405173399635;
7;BAUM;Natur;p;0;4;4;0;p;1;0.615201699998579;001;FSJS96;2019_Nov_27_1805;iat_vr;60.076405173399635;
7;LAMPE;Gemacht;q;0;5;5;9;q;1;0.798601399998006;001;FSJS96;2019_Nov_27_1805;iat_vr;60.076405173399635;
7;GEBÄUDE;Gemacht;q;0;6;6;5;q;1;0.6960312000010163;001;FSJS96;2019_Nov_27_1805;iat_vr;60.076405173399635;
7;SCHLIMM;negativ;q;0;7;7;10;q;1;0.6309693000002881;001;FSJS96;2019_Nov_27_1805;iat_vr;60.076405173399635;
7;TIER;Natur;p;0;8;8;3;p;1;0.865190700002131;001;FSJS96;2019_Nov_27_1805;iat_vr;60.076405173399635;
7;NEGATIV;negativ;q;0;9;9;12;q;1;0.5805793999970774;001;FSJS96;2019_Nov_27_1805;iat_vr;60.076405173399635;
7;COMPUTER;Gemacht;q;0;10;10;8;q;1;1.1689399999959278;001;FSJS96;2019_Nov_27_1805;iat_vr;60.076405173399635;
7;BLUME;Natur;p;0;11;11;2;p;1;0.5803841000015382;001;FSJS96;2019_Nov_27_1805;iat_vr;60.076405173399635;
7;WASSER;Natur;p;0;12;12;1;p;1;0.5648041000022204;001;FSJS96;2019_Nov_27_1805;iat_vr;60.076405173399635;
7;STEIN;Natur;p;0;13;13;4;p;1;0.5004363999978523;001;FSJS96;2019_Nov_27_1805;iat_vr;60.076405173399635;
7;AUSGEZEICHNET;positiv;p;0;14;14;15;p;1;0.49485500000446336;001;FSJS96;2019_Nov_27_1805;iat_vr;60.076405173399635;
7;SCHWACH;negativ;q;0;15;15;14;q;1;0.731448200000159;001;FSJS96;2019_Nov_27_1805;iat_vr;60.076405173399635;
7;KLEIDER;Gemacht;q;0;16;16;7;q;1;1.1143022000032943;001;FSJS96;2019_Nov_27_1805;iat_vr;60.076405173399635;
7;SCHÄDLICH;negativ;q;0;17;17;13;q;1;0.5264342000009492;001;FSJS96;2019_Nov_27_1805;iat_vr;60.076405173399635;
7;GUT;positiv;p;0;18;18;19;p;1;0.5492588999986765;001;FSJS96;2019_Nov_27_1805;iat_vr;60.076405173399635;
7;EINWANDFREI;positiv;p;0;19;19;16;p;1;0.6773553000020911;001;FSJS96;2019_Nov_27_1805;iat_vr;60.076405173399635;
7;SCHWACH;negativ;q;1;0;20;14;q;1;0.5807748000006541;001;FSJS96;2019_Nov_27_1805;iat_vr;60.076405173399635;
7;NEGATIV;negativ;q;1;1;21;12;q;1;0.6114737999960198;001;FSJS96;2019_Nov_27_1805;iat_vr;60.076405173399635;
7;SCHLIMM;negativ;q;1;2;22;10;q;1;0.548125200002687;001;FSJS96;2019_Nov_27_1805;iat_vr;60.076405173399635;
7;LAMPE;Gemacht;q;1;3;23;9;q;1;0.7483617999969283;001;FSJS96;2019_Nov_27_1805;iat_vr;60.076405173399635;
7;STEIN;Natur;p;1;4;24;4;q;0;0.4459543000048143;001;FSJS96;2019_Nov_27_1805;iat_vr;60.076405173399635;
7;COMPUTER;Gemacht;q;1;5;25;8;q;1;0.7917551999998977;001;FSJS96;2019_Nov_27_1805;iat_vr;60.076405173399635;
7;KLEIDER;Gemacht;q;1;6;26;7;q;1;0.7311265000025742;001;FSJS96;2019_Nov_27_1805;iat_vr;60.076405173399635;
7;GEBÄUDE;Gemacht;q;1;7;27;5;q;1;1.098514500001329;001;FSJS96;2019_Nov_27_1805;iat_vr;60.076405173399635;
7;SCHÄDLICH;negativ;q;1;8;28;13;q;1;0.5312562000035541;001;FSJS96;2019_Nov_27_1805;iat_vr;60.076405173399635;
7;WASSER;Natur;p;1;9;29;1;p;1;0.6809723999976995;001;FSJS96;2019_Nov_27_1805;iat_vr;60.076405173399635;
7;EINWANDFREI;positiv;p;1;10;30;16;p;1;0.6446320000031847;001;FSJS96;2019_Nov_27_1805;iat_vr;60.076405173399635;
7;SCHLECHT;negativ;q;1;11;31;11;q;1;0.8190688000031514;001;FSJS96;2019_Nov_27_1805;iat_vr;60.076405173399635;
7;GUT;positiv;p;1;12;32;19;p;1;0.8147334000022965;001;FSJS96;2019_Nov_27_1805;iat_vr;60.076405173399635;
7;HERVORRAGEND;positiv;p;1;13;33;17;p;1;0.5949154999980237;001;FSJS96;2019_Nov_27_1805;iat_vr;60.076405173399635;
7;AUSGEZEICHNET;positiv;p;1;14;34;15;p;1;0.59439040000143;001;FSJS96;2019_Nov_27_1805;iat_vr;60.076405173399635;
7;STADT;Gemacht;q;1;15;35;6;q;1;0.9964042999999947;001;FSJS96;2019_Nov_27_1805;iat_vr;60.076405173399635;
7;TIER;Natur;p;1;16;36;3;p;1;0.8646035000056145;001;FSJS96;2019_Nov_27_1805;iat_vr;60.076405173399635;
7;POSITIV;positiv;p;1;17;37;18;p;1;0.48124010000174167;001;FSJS96;2019_Nov_27_1805;iat_vr;60.076405173399635;
7;BLUME;Natur;p;1;18;38;2;p;1;0.5147833000009996;001;FSJS96;2019_Nov_27_1805;iat_vr;60.076405173399635;
7;BAUM;Natur;p;1;19;39;0;p;1;0.5310589000000618;001;FSJS96;2019_Nov_27_1805;iat_vr;60.076405173399635;
;;;;;;;;;;;001;FSJS96;2019_Nov_27_1805;iat_vr;60.076405173399635;
