Block;Word;Category;CorrResp;trials.thisRepN;trials.thisTrialN;trials.thisN;trials.thisIndex;key_resp_2.keys;key_resp_2.corr;key_resp_2.rt;session;participant;date;expName;frameRate;
1;BLUME;Natur;q;0;0;0;2;q;1;1.0967971000000034;002;FSJX99;2019_Dec_03_1001;iat_vr;60.30024698986556;
1;TIER;Natur;q;0;1;1;3;q;1;0.89772210000001;002;FSJX99;2019_Dec_03_1001;iat_vr;60.30024698986556;
1;KLEIDER;Gemacht;p;0;2;2;7;p;1;0.6515177999999651;002;FSJX99;2019_Dec_03_1001;iat_vr;60.30024698986556;
1;LAMPE;Gemacht;p;0;3;3;9;p;1;0.6268702000002122;002;FSJX99;2019_Dec_03_1001;iat_vr;60.30024698986556;
1;COMPUTER;Gemacht;p;0;4;4;8;p;1;0.5256501999997454;002;FSJX99;2019_Dec_03_1001;iat_vr;60.30024698986556;
1;STADT;Gemacht;p;0;5;5;6;p;1;0.7265152999998463;002;FSJX99;2019_Dec_03_1001;iat_vr;60.30024698986556;
1;GEBÄUDE;Gemacht;p;0;6;6;5;p;1;0.6689068000000589;002;FSJX99;2019_Dec_03_1001;iat_vr;60.30024698986556;
1;STEIN;Natur;q;0;7;7;4;q;1;0.7264433000000281;002;FSJX99;2019_Dec_03_1001;iat_vr;60.30024698986556;
1;BAUM;Natur;q;0;8;8;0;q;1;0.5301144000000022;002;FSJX99;2019_Dec_03_1001;iat_vr;60.30024698986556;
1;WASSER;Natur;q;0;9;9;1;q;1;0.47709430000031716;002;FSJX99;2019_Dec_03_1001;iat_vr;60.30024698986556;
1;STADT;Gemacht;p;1;0;10;6;p;1;0.7127556999998887;002;FSJX99;2019_Dec_03_1001;iat_vr;60.30024698986556;
1;KLEIDER;Gemacht;p;1;1;11;7;p;1;0.6309724999996433;002;FSJX99;2019_Dec_03_1001;iat_vr;60.30024698986556;
1;LAMPE;Gemacht;p;1;2;12;9;p;1;0.5646465999998327;002;FSJX99;2019_Dec_03_1001;iat_vr;60.30024698986556;
1;WASSER;Natur;q;1;3;13;1;q;1;0.7188096999998379;002;FSJX99;2019_Dec_03_1001;iat_vr;60.30024698986556;
1;STEIN;Natur;q;1;4;14;4;q;1;0.646452699999827;002;FSJX99;2019_Dec_03_1001;iat_vr;60.30024698986556;
1;TIER;Natur;q;1;5;15;3;q;1;0.48051410000016404;002;FSJX99;2019_Dec_03_1001;iat_vr;60.30024698986556;
1;BAUM;Natur;q;1;6;16;0;q;1;0.4318198000000848;002;FSJX99;2019_Dec_03_1001;iat_vr;60.30024698986556;
1;GEBÄUDE;Gemacht;p;1;7;17;5;p;1;0.6301487999999154;002;FSJX99;2019_Dec_03_1001;iat_vr;60.30024698986556;
1;BLUME;Natur;q;1;8;18;2;q;1;0.5945110000002387;002;FSJX99;2019_Dec_03_1001;iat_vr;60.30024698986556;
1;COMPUTER;Gemacht;p;1;9;19;8;p;1;0.5517511000002742;002;FSJX99;2019_Dec_03_1001;iat_vr;60.30024698986556;
;;;;;;;;;;;002;FSJX99;2019_Dec_03_1001;iat_vr;60.30024698986556;
2;NEGATIV;negativ;q;0;0;0;2;q;1;0.9117298000001028;002;FSJX99;2019_Dec_03_1001;iat_vr;60.30024698986556;
2;HERVORRAGEND;positiv;p;0;1;1;7;p;1;0.6241860000000088;002;FSJX99;2019_Dec_03_1001;iat_vr;60.30024698986556;
2;SCHWACH;negativ;q;0;2;2;4;q;1;0.782932499999788;002;FSJX99;2019_Dec_03_1001;iat_vr;60.30024698986556;
2;EINWANDFREI;positiv;p;0;3;3;6;p;1;0.5927682999999888;002;FSJX99;2019_Dec_03_1001;iat_vr;60.30024698986556;
2;SCHLIMM;negativ;q;0;4;4;0;q;1;0.5798061999998936;002;FSJX99;2019_Dec_03_1001;iat_vr;60.30024698986556;
2;SCHLECHT;negativ;q;0;5;5;1;q;1;0.5475887000002331;002;FSJX99;2019_Dec_03_1001;iat_vr;60.30024698986556;
2;GUT;positiv;p;0;6;6;9;p;1;0.546646299999793;002;FSJX99;2019_Dec_03_1001;iat_vr;60.30024698986556;
2;SCHÄDLICH;negativ;q;0;7;7;3;q;1;0.6516120999999657;002;FSJX99;2019_Dec_03_1001;iat_vr;60.30024698986556;
2;AUSGEZEICHNET;positiv;p;0;8;8;5;p;1;0.5771838000000571;002;FSJX99;2019_Dec_03_1001;iat_vr;60.30024698986556;
2;POSITIV;positiv;p;0;9;9;8;p;1;0.6190646000000015;002;FSJX99;2019_Dec_03_1001;iat_vr;60.30024698986556;
2;EINWANDFREI;positiv;p;1;0;10;6;p;1;0.5450813000002199;002;FSJX99;2019_Dec_03_1001;iat_vr;60.30024698986556;
2;SCHÄDLICH;negativ;q;1;1;11;3;q;1;0.5865410000001248;002;FSJX99;2019_Dec_03_1001;iat_vr;60.30024698986556;
2;AUSGEZEICHNET;positiv;p;1;2;12;5;p;1;0.9184073999999782;002;FSJX99;2019_Dec_03_1001;iat_vr;60.30024698986556;
2;SCHLECHT;negativ;q;1;3;13;1;q;1;0.5669843999999102;002;FSJX99;2019_Dec_03_1001;iat_vr;60.30024698986556;
2;GUT;positiv;p;1;4;14;9;p;1;0.5644728000002033;002;FSJX99;2019_Dec_03_1001;iat_vr;60.30024698986556;
2;SCHWACH;negativ;q;1;5;15;4;q;1;0.5664224000001923;002;FSJX99;2019_Dec_03_1001;iat_vr;60.30024698986556;
2;SCHLIMM;negativ;q;1;6;16;0;q;1;0.60215960000005;002;FSJX99;2019_Dec_03_1001;iat_vr;60.30024698986556;
2;NEGATIV;negativ;q;1;7;17;2;q;1;0.4469560000002275;002;FSJX99;2019_Dec_03_1001;iat_vr;60.30024698986556;
2;HERVORRAGEND;positiv;p;1;8;18;7;p;1;0.6795301000001928;002;FSJX99;2019_Dec_03_1001;iat_vr;60.30024698986556;
2;POSITIV;positiv;p;1;9;19;8;p;1;0.5970483999999487;002;FSJX99;2019_Dec_03_1001;iat_vr;60.30024698986556;
;;;;;;;;;;;002;FSJX99;2019_Dec_03_1001;iat_vr;60.30024698986556;
3;WASSER;Natur;q;0;0;0;11;q;1;1.8729465999999775;002;FSJX99;2019_Dec_03_1001;iat_vr;60.30024698986556;
3;COMPUTER;Gemacht;p;0;1;1;18;p;1;0.9655861999999615;002;FSJX99;2019_Dec_03_1001;iat_vr;60.30024698986556;
3;SCHWACH;negativ;q;0;2;2;4;p;0;1.2134736999996676;002;FSJX99;2019_Dec_03_1001;iat_vr;60.30024698986556;
3;EINWANDFREI;positiv;p;0;3;3;6;p;1;2.6036700999998175;002;FSJX99;2019_Dec_03_1001;iat_vr;60.30024698986556;
3;TIER;Natur;q;0;4;4;13;q;1;0.7316799000000174;002;FSJX99;2019_Dec_03_1001;iat_vr;60.30024698986556;
3;SCHLECHT;negativ;q;0;5;5;1;p;0;0.7520758000000569;002;FSJX99;2019_Dec_03_1001;iat_vr;60.30024698986556;
3;GEBÄUDE;Gemacht;p;0;6;6;15;q;0;0.8457774999997127;002;FSJX99;2019_Dec_03_1001;iat_vr;60.30024698986556;
3;STEIN;Natur;q;0;7;7;14;q;1;1.2154652000003807;002;FSJX99;2019_Dec_03_1001;iat_vr;60.30024698986556;
3;POSITIV;positiv;p;0;8;8;8;p;1;1.3502180999998927;002;FSJX99;2019_Dec_03_1001;iat_vr;60.30024698986556;
3;NEGATIV;negativ;q;0;9;9;2;q;1;0.7126597000001311;002;FSJX99;2019_Dec_03_1001;iat_vr;60.30024698986556;
3;AUSGEZEICHNET;positiv;p;0;10;10;5;p;1;0.6608021000001827;002;FSJX99;2019_Dec_03_1001;iat_vr;60.30024698986556;
3;SCHLIMM;negativ;q;0;11;11;0;q;1;0.6878461000001153;002;FSJX99;2019_Dec_03_1001;iat_vr;60.30024698986556;
3;KLEIDER;Gemacht;p;0;12;12;17;q;0;1.0470844999999827;002;FSJX99;2019_Dec_03_1001;iat_vr;60.30024698986556;
3;SCHÄDLICH;negativ;q;0;13;13;3;q;1;2.0496116000003894;002;FSJX99;2019_Dec_03_1001;iat_vr;60.30024698986556;
3;HERVORRAGEND;positiv;p;0;14;14;7;p;1;0.8183420000000297;002;FSJX99;2019_Dec_03_1001;iat_vr;60.30024698986556;
3;BAUM;Natur;q;0;15;15;10;p;0;2.9673509000003833;002;FSJX99;2019_Dec_03_1001;iat_vr;60.30024698986556;
3;STADT;Gemacht;p;0;16;16;16;q;0;0.7964798000002702;002;FSJX99;2019_Dec_03_1001;iat_vr;60.30024698986556;
3;GUT;positiv;p;0;17;17;9;p;1;2.4660016000002543;002;FSJX99;2019_Dec_03_1001;iat_vr;60.30024698986556;
3;BLUME;Natur;q;0;18;18;12;q;1;1.2299616000000242;002;FSJX99;2019_Dec_03_1001;iat_vr;60.30024698986556;
3;LAMPE;Gemacht;p;0;19;19;19;p;1;0.9183014999998704;002;FSJX99;2019_Dec_03_1001;iat_vr;60.30024698986556;
;;;;;;;;;;;002;FSJX99;2019_Dec_03_1001;iat_vr;60.30024698986556;
4;LAMPE;Gemacht;p;0;0;0;19;p;1;3.664966999999706;002;FSJX99;2019_Dec_03_1001;iat_vr;60.30024698986556;
4;SCHÄDLICH;negativ;q;0;1;1;3;q;1;0.9290728000000854;002;FSJX99;2019_Dec_03_1001;iat_vr;60.30024698986556;
4;COMPUTER;Gemacht;p;0;2;2;18;p;1;3.781255699999747;002;FSJX99;2019_Dec_03_1001;iat_vr;60.30024698986556;
4;HERVORRAGEND;positiv;p;0;3;3;7;p;1;1.0619572000000517;002;FSJX99;2019_Dec_03_1001;iat_vr;60.30024698986556;
4;NEGATIV;negativ;q;0;4;4;2;q;1;1.8955667000000176;002;FSJX99;2019_Dec_03_1001;iat_vr;60.30024698986556;
4;SCHLIMM;negativ;q;0;5;5;0;q;1;0.6317835999998351;002;FSJX99;2019_Dec_03_1001;iat_vr;60.30024698986556;
4;EINWANDFREI;positiv;p;0;6;6;6;p;1;0.6825614999997924;002;FSJX99;2019_Dec_03_1001;iat_vr;60.30024698986556;
4;GEBÄUDE;Gemacht;p;0;7;7;15;q;0;1.3630253999999695;002;FSJX99;2019_Dec_03_1001;iat_vr;60.30024698986556;
4;KLEIDER;Gemacht;p;0;8;8;17;p;1;1.7632737000003544;002;FSJX99;2019_Dec_03_1001;iat_vr;60.30024698986556;
4;STADT;Gemacht;p;0;9;9;16;p;1;0.6023031999998238;002;FSJX99;2019_Dec_03_1001;iat_vr;60.30024698986556;
4;STEIN;Natur;q;0;10;10;14;q;1;0.7809333999998671;002;FSJX99;2019_Dec_03_1001;iat_vr;60.30024698986556;
4;BLUME;Natur;q;0;11;11;12;q;1;1.1477108999997654;002;FSJX99;2019_Dec_03_1001;iat_vr;60.30024698986556;
4;WASSER;Natur;q;0;12;12;11;q;1;0.6655777999999373;002;FSJX99;2019_Dec_03_1001;iat_vr;60.30024698986556;
4;TIER;Natur;q;0;13;13;13;p;0;0.9991595999999845;002;FSJX99;2019_Dec_03_1001;iat_vr;60.30024698986556;
4;BAUM;Natur;q;0;14;14;10;q;1;0.8651727999999821;002;FSJX99;2019_Dec_03_1001;iat_vr;60.30024698986556;
4;SCHWACH;negativ;q;0;15;15;4;q;1;1.2971434999999474;002;FSJX99;2019_Dec_03_1001;iat_vr;60.30024698986556;
4;POSITIV;positiv;p;0;16;16;8;p;1;0.8012146999999459;002;FSJX99;2019_Dec_03_1001;iat_vr;60.30024698986556;
4;AUSGEZEICHNET;positiv;p;0;17;17;5;p;1;0.544091500000377;002;FSJX99;2019_Dec_03_1001;iat_vr;60.30024698986556;
4;GUT;positiv;p;0;18;18;9;p;1;0.4977590999997119;002;FSJX99;2019_Dec_03_1001;iat_vr;60.30024698986556;
4;SCHLECHT;negativ;q;0;19;19;1;q;1;0.6841245000000526;002;FSJX99;2019_Dec_03_1001;iat_vr;60.30024698986556;
4;SCHWACH;negativ;q;1;0;20;4;q;1;0.7688991999998507;002;FSJX99;2019_Dec_03_1001;iat_vr;60.30024698986556;
4;KLEIDER;Gemacht;p;1;1;21;17;p;1;1.0991567000000941;002;FSJX99;2019_Dec_03_1001;iat_vr;60.30024698986556;
4;NEGATIV;negativ;q;1;2;22;2;q;1;1.2021309000001565;002;FSJX99;2019_Dec_03_1001;iat_vr;60.30024698986556;
4;WASSER;Natur;q;1;3;23;11;p;0;0.7292444999998224;002;FSJX99;2019_Dec_03_1001;iat_vr;60.30024698986556;
4;STADT;Gemacht;p;1;4;24;16;p;1;0.9151941000000079;002;FSJX99;2019_Dec_03_1001;iat_vr;60.30024698986556;
4;SCHLECHT;negativ;q;1;5;25;1;q;1;0.8243329000001722;002;FSJX99;2019_Dec_03_1001;iat_vr;60.30024698986556;
4;AUSGEZEICHNET;positiv;p;1;6;26;5;p;1;0.5778925999998137;002;FSJX99;2019_Dec_03_1001;iat_vr;60.30024698986556;
4;BLUME;Natur;q;1;7;27;12;q;1;0.9803031999999803;002;FSJX99;2019_Dec_03_1001;iat_vr;60.30024698986556;
4;BAUM;Natur;q;1;8;28;10;q;1;0.6865344000002551;002;FSJX99;2019_Dec_03_1001;iat_vr;60.30024698986556;
4;LAMPE;Gemacht;p;1;9;29;19;p;1;0.729772099999991;002;FSJX99;2019_Dec_03_1001;iat_vr;60.30024698986556;
4;TIER;Natur;q;1;10;30;13;q;1;0.7136952999999266;002;FSJX99;2019_Dec_03_1001;iat_vr;60.30024698986556;
4;SCHLIMM;negativ;q;1;11;31;0;q;1;1.151254699999754;002;FSJX99;2019_Dec_03_1001;iat_vr;60.30024698986556;
4;STEIN;Natur;q;1;12;32;14;q;1;1.0159644999998818;002;FSJX99;2019_Dec_03_1001;iat_vr;60.30024698986556;
4;GUT;positiv;p;1;13;33;9;p;1;0.7492741999999453;002;FSJX99;2019_Dec_03_1001;iat_vr;60.30024698986556;
4;EINWANDFREI;positiv;p;1;14;34;6;q;0;1.6326885999997103;002;FSJX99;2019_Dec_03_1001;iat_vr;60.30024698986556;
4;SCHÄDLICH;negativ;q;1;15;35;3;q;1;2.1454491999998027;002;FSJX99;2019_Dec_03_1001;iat_vr;60.30024698986556;
4;COMPUTER;Gemacht;p;1;16;36;18;p;1;1.2644309000002067;002;FSJX99;2019_Dec_03_1001;iat_vr;60.30024698986556;
4;POSITIV;positiv;p;1;17;37;8;p;1;0.7467851999999766;002;FSJX99;2019_Dec_03_1001;iat_vr;60.30024698986556;
4;GEBÄUDE;Gemacht;p;1;18;38;15;p;1;0.6142371000000821;002;FSJX99;2019_Dec_03_1001;iat_vr;60.30024698986556;
4;HERVORRAGEND;positiv;p;1;19;39;7;p;1;0.6254840000001423;002;FSJX99;2019_Dec_03_1001;iat_vr;60.30024698986556;
;;;;;;;;;;;002;FSJX99;2019_Dec_03_1001;iat_vr;60.30024698986556;
5;BLUME;Natur;p;0;0;0;2;p;1;0.8416440999999395;002;FSJX99;2019_Dec_03_1001;iat_vr;60.30024698986556;
5;STEIN;Natur;p;0;1;1;4;p;1;0.5649296000001414;002;FSJX99;2019_Dec_03_1001;iat_vr;60.30024698986556;
5;LAMPE;Gemacht;q;0;2;2;9;q;1;0.648646699999972;002;FSJX99;2019_Dec_03_1001;iat_vr;60.30024698986556;
5;BAUM;Natur;p;0;3;3;0;p;1;0.6127503999996406;002;FSJX99;2019_Dec_03_1001;iat_vr;60.30024698986556;
5;STADT;Gemacht;q;0;4;4;6;p;0;0.6336848000000828;002;FSJX99;2019_Dec_03_1001;iat_vr;60.30024698986556;
5;TIER;Natur;p;0;5;5;3;p;1;1.0446861999998873;002;FSJX99;2019_Dec_03_1001;iat_vr;60.30024698986556;
5;COMPUTER;Gemacht;q;0;6;6;8;q;1;0.6841325999998844;002;FSJX99;2019_Dec_03_1001;iat_vr;60.30024698986556;
5;WASSER;Natur;p;0;7;7;1;p;1;0.5008477000001221;002;FSJX99;2019_Dec_03_1001;iat_vr;60.30024698986556;
5;KLEIDER;Gemacht;q;0;8;8;7;q;1;0.6807575000002544;002;FSJX99;2019_Dec_03_1001;iat_vr;60.30024698986556;
5;GEBÄUDE;Gemacht;q;0;9;9;5;q;1;0.5981584999999541;002;FSJX99;2019_Dec_03_1001;iat_vr;60.30024698986556;
5;WASSER;Natur;p;1;0;10;1;p;1;0.5638708999999835;002;FSJX99;2019_Dec_03_1001;iat_vr;60.30024698986556;
5;BLUME;Natur;p;1;1;11;2;p;1;0.5149288000002343;002;FSJX99;2019_Dec_03_1001;iat_vr;60.30024698986556;
5;COMPUTER;Gemacht;q;1;2;12;8;q;1;0.5608904000000621;002;FSJX99;2019_Dec_03_1001;iat_vr;60.30024698986556;
5;STADT;Gemacht;q;1;3;13;6;q;1;0.6019508999997925;002;FSJX99;2019_Dec_03_1001;iat_vr;60.30024698986556;
5;STEIN;Natur;p;1;4;14;4;p;1;0.6486852000002727;002;FSJX99;2019_Dec_03_1001;iat_vr;60.30024698986556;
5;KLEIDER;Gemacht;q;1;5;15;7;q;1;0.7975615000000289;002;FSJX99;2019_Dec_03_1001;iat_vr;60.30024698986556;
5;TIER;Natur;p;1;6;16;3;p;1;0.6021574999999757;002;FSJX99;2019_Dec_03_1001;iat_vr;60.30024698986556;
5;GEBÄUDE;Gemacht;q;1;7;17;5;q;1;0.5626301000002059;002;FSJX99;2019_Dec_03_1001;iat_vr;60.30024698986556;
5;BAUM;Natur;p;1;8;18;0;p;1;0.5641375999998672;002;FSJX99;2019_Dec_03_1001;iat_vr;60.30024698986556;
5;LAMPE;Gemacht;q;1;9;19;9;q;1;0.6314307000002373;002;FSJX99;2019_Dec_03_1001;iat_vr;60.30024698986556;
;;;;;;;;;;;002;FSJX99;2019_Dec_03_1001;iat_vr;60.30024698986556;
6;BLUME;Natur;p;0;0;0;2;p;1;0.6501717999999528;002;FSJX99;2019_Dec_03_1001;iat_vr;60.30024698986556;
6;WASSER;Natur;p;0;1;1;1;p;1;0.4793907999996918;002;FSJX99;2019_Dec_03_1001;iat_vr;60.30024698986556;
6;TIER;Natur;p;0;2;2;3;p;1;0.5820690999998988;002;FSJX99;2019_Dec_03_1001;iat_vr;60.30024698986556;
6;SCHWACH;negativ;q;0;3;3;14;q;1;0.6636009000003469;002;FSJX99;2019_Dec_03_1001;iat_vr;60.30024698986556;
6;NEGATIV;negativ;q;0;4;4;12;q;1;0.6141606000001048;002;FSJX99;2019_Dec_03_1001;iat_vr;60.30024698986556;
6;COMPUTER;Gemacht;q;0;5;5;8;q;1;0.5792507999999543;002;FSJX99;2019_Dec_03_1001;iat_vr;60.30024698986556;
6;HERVORRAGEND;positiv;p;0;6;6;17;p;1;0.6615372999999636;002;FSJX99;2019_Dec_03_1001;iat_vr;60.30024698986556;
6;AUSGEZEICHNET;positiv;p;0;7;7;15;p;1;0.4838177999999971;002;FSJX99;2019_Dec_03_1001;iat_vr;60.30024698986556;
6;GEBÄUDE;Gemacht;q;0;8;8;5;p;0;0.49668320000000676;002;FSJX99;2019_Dec_03_1001;iat_vr;60.30024698986556;
6;SCHLECHT;negativ;q;0;9;9;11;q;1;0.8516480000002957;002;FSJX99;2019_Dec_03_1001;iat_vr;60.30024698986556;
6;LAMPE;Gemacht;q;0;10;10;9;q;1;0.5155981000002612;002;FSJX99;2019_Dec_03_1001;iat_vr;60.30024698986556;
6;EINWANDFREI;positiv;p;0;11;11;16;p;1;0.7337112999998681;002;FSJX99;2019_Dec_03_1001;iat_vr;60.30024698986556;
6;POSITIV;positiv;p;0;12;12;18;p;1;0.45169529999975566;002;FSJX99;2019_Dec_03_1001;iat_vr;60.30024698986556;
6;SCHLIMM;negativ;q;0;13;13;10;q;1;0.7970462999996926;002;FSJX99;2019_Dec_03_1001;iat_vr;60.30024698986556;
6;STADT;Gemacht;q;0;14;14;6;q;1;0.8355753000000732;002;FSJX99;2019_Dec_03_1001;iat_vr;60.30024698986556;
6;STEIN;Natur;p;0;15;15;4;p;1;0.6977013000000625;002;FSJX99;2019_Dec_03_1001;iat_vr;60.30024698986556;
6;BAUM;Natur;p;0;16;16;0;p;1;0.41930839999986347;002;FSJX99;2019_Dec_03_1001;iat_vr;60.30024698986556;
6;SCHÄDLICH;negativ;q;0;17;17;13;q;1;0.5778940000000148;002;FSJX99;2019_Dec_03_1001;iat_vr;60.30024698986556;
6;GUT;positiv;p;0;18;18;19;p;1;0.5495524999996633;002;FSJX99;2019_Dec_03_1001;iat_vr;60.30024698986556;
6;KLEIDER;Gemacht;q;0;19;19;7;q;1;0.6185126000000309;002;FSJX99;2019_Dec_03_1001;iat_vr;60.30024698986556;
;;;;;;;;;;;002;FSJX99;2019_Dec_03_1001;iat_vr;60.30024698986556;
7;COMPUTER;Gemacht;q;0;0;0;8;q;1;1.4572777999997015;002;FSJX99;2019_Dec_03_1001;iat_vr;60.30024698986556;
7;SCHWACH;negativ;q;0;1;1;14;q;1;0.5466063000003487;002;FSJX99;2019_Dec_03_1001;iat_vr;60.30024698986556;
7;NEGATIV;negativ;q;0;2;2;12;q;1;0.4639204999998583;002;FSJX99;2019_Dec_03_1001;iat_vr;60.30024698986556;
7;AUSGEZEICHNET;positiv;p;0;3;3;15;p;1;0.5122081999998045;002;FSJX99;2019_Dec_03_1001;iat_vr;60.30024698986556;
7;SCHLECHT;negativ;q;0;4;4;11;q;1;0.7012045999999827;002;FSJX99;2019_Dec_03_1001;iat_vr;60.30024698986556;
7;HERVORRAGEND;positiv;p;0;5;5;17;p;1;0.5936842000000979;002;FSJX99;2019_Dec_03_1001;iat_vr;60.30024698986556;
7;LAMPE;Gemacht;q;0;6;6;9;q;1;0.7152621000000181;002;FSJX99;2019_Dec_03_1001;iat_vr;60.30024698986556;
7;TIER;Natur;p;0;7;7;3;p;1;0.5826014999997824;002;FSJX99;2019_Dec_03_1001;iat_vr;60.30024698986556;
7;POSITIV;positiv;p;0;8;8;18;p;1;0.6018552000000454;002;FSJX99;2019_Dec_03_1001;iat_vr;60.30024698986556;
7;KLEIDER;Gemacht;q;0;9;9;7;q;1;0.6294769000000997;002;FSJX99;2019_Dec_03_1001;iat_vr;60.30024698986556;
7;STEIN;Natur;p;0;10;10;4;p;1;0.6138277000000016;002;FSJX99;2019_Dec_03_1001;iat_vr;60.30024698986556;
7;EINWANDFREI;positiv;p;0;11;11;16;p;1;0.5629315999999562;002;FSJX99;2019_Dec_03_1001;iat_vr;60.30024698986556;
7;WASSER;Natur;p;0;12;12;1;p;1;0.4808368999997583;002;FSJX99;2019_Dec_03_1001;iat_vr;60.30024698986556;
7;BAUM;Natur;p;0;13;13;0;p;1;0.4477478999997402;002;FSJX99;2019_Dec_03_1001;iat_vr;60.30024698986556;
7;SCHÄDLICH;negativ;q;0;14;14;13;q;1;0.5015428000001521;002;FSJX99;2019_Dec_03_1001;iat_vr;60.30024698986556;
7;BLUME;Natur;p;0;15;15;2;p;1;0.4614338000001226;002;FSJX99;2019_Dec_03_1001;iat_vr;60.30024698986556;
7;STADT;Gemacht;q;0;16;16;6;q;1;0.5503862999999001;002;FSJX99;2019_Dec_03_1001;iat_vr;60.30024698986556;
7;SCHLIMM;negativ;q;0;17;17;10;q;1;0.8355265000000145;002;FSJX99;2019_Dec_03_1001;iat_vr;60.30024698986556;
7;GUT;positiv;p;0;18;18;19;p;1;0.5648893000002317;002;FSJX99;2019_Dec_03_1001;iat_vr;60.30024698986556;
7;GEBÄUDE;Gemacht;q;0;19;19;5;q;1;0.6774940000000242;002;FSJX99;2019_Dec_03_1001;iat_vr;60.30024698986556;
7;WASSER;Natur;p;1;0;20;1;p;1;0.6138637000003655;002;FSJX99;2019_Dec_03_1001;iat_vr;60.30024698986556;
7;COMPUTER;Gemacht;q;1;1;21;8;q;1;0.6413159000003361;002;FSJX99;2019_Dec_03_1001;iat_vr;60.30024698986556;
7;BLUME;Natur;p;1;2;22;2;p;1;0.6152472000003399;002;FSJX99;2019_Dec_03_1001;iat_vr;60.30024698986556;
7;BAUM;Natur;p;1;3;23;0;p;1;0.9968502000001536;002;FSJX99;2019_Dec_03_1001;iat_vr;60.30024698986556;
7;GUT;positiv;p;1;4;24;19;p;1;0.48394390000021303;002;FSJX99;2019_Dec_03_1001;iat_vr;60.30024698986556;
7;POSITIV;positiv;p;1;5;25;18;p;1;0.4462114000002657;002;FSJX99;2019_Dec_03_1001;iat_vr;60.30024698986556;
7;KLEIDER;Gemacht;q;1;6;26;7;q;1;0.7625316999997267;002;FSJX99;2019_Dec_03_1001;iat_vr;60.30024698986556;
7;SCHLIMM;negativ;q;1;7;27;10;q;1;0.6269922000001316;002;FSJX99;2019_Dec_03_1001;iat_vr;60.30024698986556;
7;LAMPE;Gemacht;q;1;8;28;9;q;1;0.7145203999998557;002;FSJX99;2019_Dec_03_1001;iat_vr;60.30024698986556;
7;SCHLECHT;negativ;q;1;9;29;11;q;1;0.4522986000001765;002;FSJX99;2019_Dec_03_1001;iat_vr;60.30024698986556;
7;GEBÄUDE;Gemacht;q;1;10;30;5;q;1;0.596420599999874;002;FSJX99;2019_Dec_03_1001;iat_vr;60.30024698986556;
7;AUSGEZEICHNET;positiv;p;1;11;31;15;q;0;0.4961941999999908;002;FSJX99;2019_Dec_03_1001;iat_vr;60.30024698986556;
7;HERVORRAGEND;positiv;p;1;12;32;17;p;1;0.8694206999998642;002;FSJX99;2019_Dec_03_1001;iat_vr;60.30024698986556;
7;TIER;Natur;p;1;13;33;3;p;1;0.617412599999625;002;FSJX99;2019_Dec_03_1001;iat_vr;60.30024698986556;
7;SCHÄDLICH;negativ;q;1;14;34;13;q;1;0.646667399999842;002;FSJX99;2019_Dec_03_1001;iat_vr;60.30024698986556;
7;STADT;Gemacht;q;1;15;35;6;q;1;0.7133671999999933;002;FSJX99;2019_Dec_03_1001;iat_vr;60.30024698986556;
7;NEGATIV;negativ;q;1;16;36;12;q;1;0.6803574999999;002;FSJX99;2019_Dec_03_1001;iat_vr;60.30024698986556;
7;STEIN;Natur;p;1;17;37;4;p;1;0.6305067000002964;002;FSJX99;2019_Dec_03_1001;iat_vr;60.30024698986556;
7;EINWANDFREI;positiv;p;1;18;38;16;p;1;0.6282881000001908;002;FSJX99;2019_Dec_03_1001;iat_vr;60.30024698986556;
7;SCHWACH;negativ;q;1;19;39;14;q;1;0.6597212000001491;002;FSJX99;2019_Dec_03_1001;iat_vr;60.30024698986556;
;;;;;;;;;;;002;FSJX99;2019_Dec_03_1001;iat_vr;60.30024698986556;
