Block;Word;Category;CorrResp;trials.thisRepN;trials.thisTrialN;trials.thisN;trials.thisIndex;key_resp_2.keys;key_resp_2.corr;key_resp_2.rt;session;participant;date;expName;frameRate;
1;LAMPE;Gemacht;p;0;0;0;9;p;1;1.139456800003245;002;FSLK99;2019_Dec_03_1517;iat_vr;59.98005063556221;
1;KLEIDER;Gemacht;p;0;1;1;7;p;1;0.72148439999728;002;FSLK99;2019_Dec_03_1517;iat_vr;59.98005063556221;
1;GEBÄUDE;Gemacht;p;0;2;2;5;p;1;0.5840535999996064;002;FSLK99;2019_Dec_03_1517;iat_vr;59.98005063556221;
1;TIER;Natur;q;0;3;3;3;q;1;0.6296571000020776;002;FSLK99;2019_Dec_03_1517;iat_vr;59.98005063556221;
1;STEIN;Natur;q;0;4;4;4;q;1;0.6911398000011104;002;FSLK99;2019_Dec_03_1517;iat_vr;59.98005063556221;
1;WASSER;Natur;q;0;5;5;1;q;1;0.5133174000002327;002;FSLK99;2019_Dec_03_1517;iat_vr;59.98005063556221;
1;BAUM;Natur;q;0;6;6;0;q;1;0.6988787000009324;002;FSLK99;2019_Dec_03_1517;iat_vr;59.98005063556221;
1;COMPUTER;Gemacht;p;0;7;7;8;p;1;0.6852562999993097;002;FSLK99;2019_Dec_03_1517;iat_vr;59.98005063556221;
1;STADT;Gemacht;p;0;8;8;6;p;1;0.49847869999939576;002;FSLK99;2019_Dec_03_1517;iat_vr;59.98005063556221;
1;BLUME;Natur;q;0;9;9;2;q;1;0.6811159999997471;002;FSLK99;2019_Dec_03_1517;iat_vr;59.98005063556221;
1;STEIN;Natur;q;1;0;10;4;q;1;0.6353335999992851;002;FSLK99;2019_Dec_03_1517;iat_vr;59.98005063556221;
1;TIER;Natur;q;1;1;11;3;q;1;0.5322438000002876;002;FSLK99;2019_Dec_03_1517;iat_vr;59.98005063556221;
1;BLUME;Natur;q;1;2;12;2;q;1;0.49647099999856437;002;FSLK99;2019_Dec_03_1517;iat_vr;59.98005063556221;
1;BAUM;Natur;q;1;3;13;0;q;1;0.5315314999970724;002;FSLK99;2019_Dec_03_1517;iat_vr;59.98005063556221;
1;KLEIDER;Gemacht;p;1;4;14;7;p;1;0.5468710000022838;002;FSLK99;2019_Dec_03_1517;iat_vr;59.98005063556221;
1;COMPUTER;Gemacht;p;1;5;15;8;p;1;0.46387350000077276;002;FSLK99;2019_Dec_03_1517;iat_vr;59.98005063556221;
1;WASSER;Natur;q;1;6;16;1;q;1;0.6344817999997758;002;FSLK99;2019_Dec_03_1517;iat_vr;59.98005063556221;
1;LAMPE;Gemacht;p;1;7;17;9;p;1;0.6654477000010957;002;FSLK99;2019_Dec_03_1517;iat_vr;59.98005063556221;
1;STADT;Gemacht;p;1;8;18;6;p;1;0.6453442999991239;002;FSLK99;2019_Dec_03_1517;iat_vr;59.98005063556221;
1;GEBÄUDE;Gemacht;p;1;9;19;5;p;1;0.4807775000008405;002;FSLK99;2019_Dec_03_1517;iat_vr;59.98005063556221;
;;;;;;;;;;;002;FSLK99;2019_Dec_03_1517;iat_vr;59.98005063556221;
2;SCHWACH;negativ;q;0;0;0;4;q;1;0.8218624000001;002;FSLK99;2019_Dec_03_1517;iat_vr;59.98005063556221;
2;SCHLECHT;negativ;q;0;1;1;1;q;1;0.6294807999984187;002;FSLK99;2019_Dec_03_1517;iat_vr;59.98005063556221;
2;POSITIV;positiv;p;0;2;2;8;q;0;0.5958282999999938;002;FSLK99;2019_Dec_03_1517;iat_vr;59.98005063556221;
2;GUT;positiv;p;0;3;3;9;p;1;0.650264399999287;002;FSLK99;2019_Dec_03_1517;iat_vr;59.98005063556221;
2;SCHLIMM;negativ;q;0;4;4;0;q;1;0.6190452000009827;002;FSLK99;2019_Dec_03_1517;iat_vr;59.98005063556221;
2;HERVORRAGEND;positiv;p;0;5;5;7;p;1;0.6969214999990072;002;FSLK99;2019_Dec_03_1517;iat_vr;59.98005063556221;
2;EINWANDFREI;positiv;p;0;6;6;6;p;1;0.8956244000000879;002;FSLK99;2019_Dec_03_1517;iat_vr;59.98005063556221;
2;NEGATIV;negativ;q;0;7;7;2;q;1;0.596498300001258;002;FSLK99;2019_Dec_03_1517;iat_vr;59.98005063556221;
2;SCHÄDLICH;negativ;q;0;8;8;3;q;1;0.5945597999998427;002;FSLK99;2019_Dec_03_1517;iat_vr;59.98005063556221;
2;AUSGEZEICHNET;positiv;p;0;9;9;5;p;1;0.7059645000008459;002;FSLK99;2019_Dec_03_1517;iat_vr;59.98005063556221;
2;HERVORRAGEND;positiv;p;1;0;10;7;p;1;0.5455419999998412;002;FSLK99;2019_Dec_03_1517;iat_vr;59.98005063556221;
2;SCHWACH;negativ;q;1;1;11;4;q;1;0.56451929999821;002;FSLK99;2019_Dec_03_1517;iat_vr;59.98005063556221;
2;AUSGEZEICHNET;positiv;p;1;2;12;5;p;1;0.5876651999969909;002;FSLK99;2019_Dec_03_1517;iat_vr;59.98005063556221;
2;SCHLIMM;negativ;q;1;3;13;0;q;1;0.5927045000025828;002;FSLK99;2019_Dec_03_1517;iat_vr;59.98005063556221;
2;POSITIV;positiv;p;1;4;14;8;p;1;0.6672263000000385;002;FSLK99;2019_Dec_03_1517;iat_vr;59.98005063556221;
2;SCHÄDLICH;negativ;q;1;5;15;3;q;1;0.5798020000001998;002;FSLK99;2019_Dec_03_1517;iat_vr;59.98005063556221;
2;NEGATIV;negativ;q;1;6;16;2;q;1;0.6809979999998177;002;FSLK99;2019_Dec_03_1517;iat_vr;59.98005063556221;
2;GUT;positiv;p;1;7;17;9;p;1;0.5826914999997825;002;FSLK99;2019_Dec_03_1517;iat_vr;59.98005063556221;
2;EINWANDFREI;positiv;p;1;8;18;6;p;1;0.5437490999975125;002;FSLK99;2019_Dec_03_1517;iat_vr;59.98005063556221;
2;SCHLECHT;negativ;q;1;9;19;1;q;1;0.5688341999994009;002;FSLK99;2019_Dec_03_1517;iat_vr;59.98005063556221;
;;;;;;;;;;;002;FSLK99;2019_Dec_03_1517;iat_vr;59.98005063556221;
3;SCHWACH;negativ;q;0;0;0;4;q;1;0.6702438999964215;002;FSLK99;2019_Dec_03_1517;iat_vr;59.98005063556221;
3;SCHÄDLICH;negativ;q;0;1;1;3;q;1;0.6204644000026747;002;FSLK99;2019_Dec_03_1517;iat_vr;59.98005063556221;
3;POSITIV;positiv;p;0;2;2;8;p;1;0.9664608000020962;002;FSLK99;2019_Dec_03_1517;iat_vr;59.98005063556221;
3;SCHLIMM;negativ;q;0;3;3;0;q;1;1.8282853999990039;002;FSLK99;2019_Dec_03_1517;iat_vr;59.98005063556221;
3;SCHLECHT;negativ;q;0;4;4;1;q;1;0.5614435999996203;002;FSLK99;2019_Dec_03_1517;iat_vr;59.98005063556221;
3;TIER;Natur;q;0;5;5;13;q;1;0.9668205000016314;002;FSLK99;2019_Dec_03_1517;iat_vr;59.98005063556221;
3;GUT;positiv;p;0;6;6;9;p;1;1.048487500000192;002;FSLK99;2019_Dec_03_1517;iat_vr;59.98005063556221;
3;AUSGEZEICHNET;positiv;p;0;7;7;5;p;1;0.9292252999985067;002;FSLK99;2019_Dec_03_1517;iat_vr;59.98005063556221;
3;BLUME;Natur;q;0;8;8;12;q;1;1.3308598000003258;002;FSLK99;2019_Dec_03_1517;iat_vr;59.98005063556221;
3;NEGATIV;negativ;q;0;9;9;2;q;1;0.531972400000086;002;FSLK99;2019_Dec_03_1517;iat_vr;59.98005063556221;
3;GEBÄUDE;Gemacht;p;0;10;10;15;p;1;0.7813154999967082;002;FSLK99;2019_Dec_03_1517;iat_vr;59.98005063556221;
3;WASSER;Natur;q;0;11;11;11;q;1;0.7662157000013394;002;FSLK99;2019_Dec_03_1517;iat_vr;59.98005063556221;
3;HERVORRAGEND;positiv;p;0;12;12;7;p;1;1.2295658999973966;002;FSLK99;2019_Dec_03_1517;iat_vr;59.98005063556221;
3;BAUM;Natur;q;0;13;13;10;q;1;0.8304052999992564;002;FSLK99;2019_Dec_03_1517;iat_vr;59.98005063556221;
3;STADT;Gemacht;p;0;14;14;16;p;1;1.3178404999998747;002;FSLK99;2019_Dec_03_1517;iat_vr;59.98005063556221;
3;STEIN;Natur;q;0;15;15;14;q;1;0.7483605999987049;002;FSLK99;2019_Dec_03_1517;iat_vr;59.98005063556221;
3;EINWANDFREI;positiv;p;0;16;16;6;p;1;1.5113490000003367;002;FSLK99;2019_Dec_03_1517;iat_vr;59.98005063556221;
3;COMPUTER;Gemacht;p;0;17;17;18;p;1;0.680576499999006;002;FSLK99;2019_Dec_03_1517;iat_vr;59.98005063556221;
3;LAMPE;Gemacht;p;0;18;18;19;p;1;0.48133750000124564;002;FSLK99;2019_Dec_03_1517;iat_vr;59.98005063556221;
3;KLEIDER;Gemacht;p;0;19;19;17;p;1;0.6135135000004084;002;FSLK99;2019_Dec_03_1517;iat_vr;59.98005063556221;
;;;;;;;;;;;002;FSLK99;2019_Dec_03_1517;iat_vr;59.98005063556221;
4;BLUME;Natur;q;0;0;0;12;q;1;0.8797264999993786;002;FSLK99;2019_Dec_03_1517;iat_vr;59.98005063556221;
4;GEBÄUDE;Gemacht;p;0;1;1;15;p;1;0.7162166999987676;002;FSLK99;2019_Dec_03_1517;iat_vr;59.98005063556221;
4;SCHLIMM;negativ;q;0;2;2;0;q;1;0.8148021000015433;002;FSLK99;2019_Dec_03_1517;iat_vr;59.98005063556221;
4;WASSER;Natur;q;0;3;3;11;q;1;1.0157768999997643;002;FSLK99;2019_Dec_03_1517;iat_vr;59.98005063556221;
4;KLEIDER;Gemacht;p;0;4;4;17;p;1;0.7463333000014245;002;FSLK99;2019_Dec_03_1517;iat_vr;59.98005063556221;
4;HERVORRAGEND;positiv;p;0;5;5;7;p;1;1.7325841999991098;002;FSLK99;2019_Dec_03_1517;iat_vr;59.98005063556221;
4;STADT;Gemacht;p;0;6;6;16;p;1;0.5815200000033656;002;FSLK99;2019_Dec_03_1517;iat_vr;59.98005063556221;
4;COMPUTER;Gemacht;p;0;7;7;18;p;1;0.6155916999996407;002;FSLK99;2019_Dec_03_1517;iat_vr;59.98005063556221;
4;EINWANDFREI;positiv;p;0;8;8;6;p;1;0.8277621999986877;002;FSLK99;2019_Dec_03_1517;iat_vr;59.98005063556221;
4;TIER;Natur;q;0;9;9;13;q;1;0.684138399999938;002;FSLK99;2019_Dec_03_1517;iat_vr;59.98005063556221;
4;LAMPE;Gemacht;p;0;10;10;19;p;1;0.9136671999985992;002;FSLK99;2019_Dec_03_1517;iat_vr;59.98005063556221;
4;SCHÄDLICH;negativ;q;0;11;11;3;q;1;1.063348899999255;002;FSLK99;2019_Dec_03_1517;iat_vr;59.98005063556221;
4;GUT;positiv;p;0;12;12;9;p;1;0.7321049000020139;002;FSLK99;2019_Dec_03_1517;iat_vr;59.98005063556221;
4;NEGATIV;negativ;q;0;13;13;2;q;1;0.5814236000005621;002;FSLK99;2019_Dec_03_1517;iat_vr;59.98005063556221;
4;STEIN;Natur;q;0;14;14;14;q;1;1.0467978999986371;002;FSLK99;2019_Dec_03_1517;iat_vr;59.98005063556221;
4;SCHWACH;negativ;q;0;15;15;4;q;1;1.1970693999974173;002;FSLK99;2019_Dec_03_1517;iat_vr;59.98005063556221;
4;SCHLECHT;negativ;q;0;16;16;1;q;1;0.48132889999760664;002;FSLK99;2019_Dec_03_1517;iat_vr;59.98005063556221;
4;POSITIV;positiv;p;0;17;17;8;p;1;0.5801234000027762;002;FSLK99;2019_Dec_03_1517;iat_vr;59.98005063556221;
4;BAUM;Natur;q;0;18;18;10;q;1;0.9320388000014646;002;FSLK99;2019_Dec_03_1517;iat_vr;59.98005063556221;
4;AUSGEZEICHNET;positiv;p;0;19;19;5;p;1;1.3612619000014092;002;FSLK99;2019_Dec_03_1517;iat_vr;59.98005063556221;
4;AUSGEZEICHNET;positiv;p;1;0;20;5;p;1;0.5176078999975289;002;FSLK99;2019_Dec_03_1517;iat_vr;59.98005063556221;
4;HERVORRAGEND;positiv;p;1;1;21;7;p;1;0.5291632999978901;002;FSLK99;2019_Dec_03_1517;iat_vr;59.98005063556221;
4;SCHÄDLICH;negativ;q;1;2;22;3;q;1;0.8313510999978462;002;FSLK99;2019_Dec_03_1517;iat_vr;59.98005063556221;
4;EINWANDFREI;positiv;p;1;3;23;6;p;1;0.6937326999977813;002;FSLK99;2019_Dec_03_1517;iat_vr;59.98005063556221;
4;GEBÄUDE;Gemacht;p;1;4;24;15;p;1;0.6805245999967156;002;FSLK99;2019_Dec_03_1517;iat_vr;59.98005063556221;
4;SCHLECHT;negativ;q;1;5;25;1;q;1;0.7179940999994869;002;FSLK99;2019_Dec_03_1517;iat_vr;59.98005063556221;
4;STADT;Gemacht;p;1;6;26;16;p;1;1.6484995000027993;002;FSLK99;2019_Dec_03_1517;iat_vr;59.98005063556221;
4;BLUME;Natur;q;1;7;27;12;q;1;0.6143425999980536;002;FSLK99;2019_Dec_03_1517;iat_vr;59.98005063556221;
4;SCHWACH;negativ;q;1;8;28;4;q;1;0.664133899997978;002;FSLK99;2019_Dec_03_1517;iat_vr;59.98005063556221;
4;GUT;positiv;p;1;9;29;9;p;1;0.7659303000000364;002;FSLK99;2019_Dec_03_1517;iat_vr;59.98005063556221;
4;POSITIV;positiv;p;1;10;30;8;p;1;0.7304519999997865;002;FSLK99;2019_Dec_03_1517;iat_vr;59.98005063556221;
4;NEGATIV;negativ;q;1;11;31;2;q;1;0.7136102999975265;002;FSLK99;2019_Dec_03_1517;iat_vr;59.98005063556221;
4;STEIN;Natur;q;1;12;32;14;q;1;1.0810483999994176;002;FSLK99;2019_Dec_03_1517;iat_vr;59.98005063556221;
4;KLEIDER;Gemacht;p;1;13;33;17;p;1;1.062905700000556;002;FSLK99;2019_Dec_03_1517;iat_vr;59.98005063556221;
4;LAMPE;Gemacht;p;1;14;34;19;p;1;0.4980198000012024;002;FSLK99;2019_Dec_03_1517;iat_vr;59.98005063556221;
4;TIER;Natur;q;1;15;35;13;q;1;0.649084299999231;002;FSLK99;2019_Dec_03_1517;iat_vr;59.98005063556221;
4;BAUM;Natur;q;1;16;36;10;q;1;0.8320561000000453;002;FSLK99;2019_Dec_03_1517;iat_vr;59.98005063556221;
4;WASSER;Natur;q;1;17;37;11;q;1;0.5782075000024633;002;FSLK99;2019_Dec_03_1517;iat_vr;59.98005063556221;
4;SCHLIMM;negativ;q;1;18;38;0;q;1;0.5484117999985756;002;FSLK99;2019_Dec_03_1517;iat_vr;59.98005063556221;
4;COMPUTER;Gemacht;p;1;19;39;18;p;1;0.8021829999997863;002;FSLK99;2019_Dec_03_1517;iat_vr;59.98005063556221;
;;;;;;;;;;;002;FSLK99;2019_Dec_03_1517;iat_vr;59.98005063556221;
5;BLUME;Natur;p;0;0;0;2;p;1;1.5118241000018315;002;FSLK99;2019_Dec_03_1517;iat_vr;59.98005063556221;
5;KLEIDER;Gemacht;q;0;1;1;7;q;1;0.5487562000016624;002;FSLK99;2019_Dec_03_1517;iat_vr;59.98005063556221;
5;BAUM;Natur;p;0;2;2;0;p;1;0.8327417000000423;002;FSLK99;2019_Dec_03_1517;iat_vr;59.98005063556221;
5;TIER;Natur;p;0;3;3;3;p;1;0.5320834000012837;002;FSLK99;2019_Dec_03_1517;iat_vr;59.98005063556221;
5;COMPUTER;Gemacht;q;0;4;4;8;q;1;0.5689628999971319;002;FSLK99;2019_Dec_03_1517;iat_vr;59.98005063556221;
5;GEBÄUDE;Gemacht;q;0;5;5;5;q;1;0.5787242999977025;002;FSLK99;2019_Dec_03_1517;iat_vr;59.98005063556221;
5;LAMPE;Gemacht;q;0;6;6;9;q;1;0.5653820000006817;002;FSLK99;2019_Dec_03_1517;iat_vr;59.98005063556221;
5;STEIN;Natur;p;0;7;7;4;p;1;0.6679206999979215;002;FSLK99;2019_Dec_03_1517;iat_vr;59.98005063556221;
5;STADT;Gemacht;q;0;8;8;6;q;1;0.6482281000025978;002;FSLK99;2019_Dec_03_1517;iat_vr;59.98005063556221;
5;WASSER;Natur;p;0;9;9;1;p;1;0.6653017000026011;002;FSLK99;2019_Dec_03_1517;iat_vr;59.98005063556221;
5;GEBÄUDE;Gemacht;q;1;0;10;5;q;1;0.5804631000028166;002;FSLK99;2019_Dec_03_1517;iat_vr;59.98005063556221;
5;BLUME;Natur;p;1;1;11;2;p;1;0.6474640000014915;002;FSLK99;2019_Dec_03_1517;iat_vr;59.98005063556221;
5;STEIN;Natur;p;1;2;12;4;p;1;0.5814452000013262;002;FSLK99;2019_Dec_03_1517;iat_vr;59.98005063556221;
5;LAMPE;Gemacht;q;1;3;13;9;q;1;0.5820396999988589;002;FSLK99;2019_Dec_03_1517;iat_vr;59.98005063556221;
5;TIER;Natur;p;1;4;14;3;p;1;0.5192056000014418;002;FSLK99;2019_Dec_03_1517;iat_vr;59.98005063556221;
5;COMPUTER;Gemacht;q;1;5;15;8;q;1;0.5143728000002739;002;FSLK99;2019_Dec_03_1517;iat_vr;59.98005063556221;
5;KLEIDER;Gemacht;q;1;6;16;7;q;1;0.5653007000000798;002;FSLK99;2019_Dec_03_1517;iat_vr;59.98005063556221;
5;BAUM;Natur;p;1;7;17;0;q;0;0.6489499999988766;002;FSLK99;2019_Dec_03_1517;iat_vr;59.98005063556221;
5;WASSER;Natur;p;1;8;18;1;p;1;0.5639154000018607;002;FSLK99;2019_Dec_03_1517;iat_vr;59.98005063556221;
5;STADT;Gemacht;q;1;9;19;6;q;1;1.2143648999990546;002;FSLK99;2019_Dec_03_1517;iat_vr;59.98005063556221;
;;;;;;;;;;;002;FSLK99;2019_Dec_03_1517;iat_vr;59.98005063556221;
6;HERVORRAGEND;positiv;p;0;0;0;17;p;1;0.7783493999995699;002;FSLK99;2019_Dec_03_1517;iat_vr;59.98005063556221;
6;GEBÄUDE;Gemacht;q;0;1;1;5;q;1;0.6492972999985795;002;FSLK99;2019_Dec_03_1517;iat_vr;59.98005063556221;
6;KLEIDER;Gemacht;q;0;2;2;7;q;1;1.3302297000009276;002;FSLK99;2019_Dec_03_1517;iat_vr;59.98005063556221;
6;EINWANDFREI;positiv;p;0;3;3;16;p;1;0.8295067999970342;002;FSLK99;2019_Dec_03_1517;iat_vr;59.98005063556221;
6;AUSGEZEICHNET;positiv;p;0;4;4;15;p;1;0.7102521999986493;002;FSLK99;2019_Dec_03_1517;iat_vr;59.98005063556221;
6;STEIN;Natur;p;0;5;5;4;p;1;0.7290519999987737;002;FSLK99;2019_Dec_03_1517;iat_vr;59.98005063556221;
6;SCHLECHT;negativ;q;0;6;6;11;q;1;0.581945200003247;002;FSLK99;2019_Dec_03_1517;iat_vr;59.98005063556221;
6;BLUME;Natur;p;0;7;7;2;p;1;0.6318092000001343;002;FSLK99;2019_Dec_03_1517;iat_vr;59.98005063556221;
6;SCHÄDLICH;negativ;q;0;8;8;13;q;1;0.6469397000000754;002;FSLK99;2019_Dec_03_1517;iat_vr;59.98005063556221;
6;STADT;Gemacht;q;0;9;9;6;q;1;0.5646551000027102;002;FSLK99;2019_Dec_03_1517;iat_vr;59.98005063556221;
6;LAMPE;Gemacht;q;0;10;10;9;q;1;0.5516508999971848;002;FSLK99;2019_Dec_03_1517;iat_vr;59.98005063556221;
6;COMPUTER;Gemacht;q;0;11;11;8;q;1;0.4819552000008116;002;FSLK99;2019_Dec_03_1517;iat_vr;59.98005063556221;
6;POSITIV;positiv;p;0;12;12;18;p;1;0.598536100002093;002;FSLK99;2019_Dec_03_1517;iat_vr;59.98005063556221;
6;TIER;Natur;p;0;13;13;3;p;1;0.48221509999712;002;FSLK99;2019_Dec_03_1517;iat_vr;59.98005063556221;
6;SCHLIMM;negativ;q;0;14;14;10;q;1;0.5970842999995511;002;FSLK99;2019_Dec_03_1517;iat_vr;59.98005063556221;
6;NEGATIV;negativ;q;0;15;15;12;q;1;0.5977750999991258;002;FSLK99;2019_Dec_03_1517;iat_vr;59.98005063556221;
6;GUT;positiv;p;0;16;16;19;p;1;0.5653701000010187;002;FSLK99;2019_Dec_03_1517;iat_vr;59.98005063556221;
6;WASSER;Natur;p;0;17;17;1;p;1;0.5617776999970374;002;FSLK99;2019_Dec_03_1517;iat_vr;59.98005063556221;
6;SCHWACH;negativ;q;0;18;18;14;q;1;0.7639309999976831;002;FSLK99;2019_Dec_03_1517;iat_vr;59.98005063556221;
6;BAUM;Natur;p;0;19;19;0;p;1;0.6018398000014713;002;FSLK99;2019_Dec_03_1517;iat_vr;59.98005063556221;
;;;;;;;;;;;002;FSLK99;2019_Dec_03_1517;iat_vr;59.98005063556221;
7;SCHWACH;negativ;q;0;0;0;14;q;1;0.6127763000004052;002;FSLK99;2019_Dec_03_1517;iat_vr;59.98005063556221;
7;GUT;positiv;p;0;1;1;19;p;1;0.5492676999965624;002;FSLK99;2019_Dec_03_1517;iat_vr;59.98005063556221;
7;POSITIV;positiv;p;0;2;2;18;p;1;0.498402500001248;002;FSLK99;2019_Dec_03_1517;iat_vr;59.98005063556221;
7;WASSER;Natur;p;0;3;3;1;p;1;0.5155239000014262;002;FSLK99;2019_Dec_03_1517;iat_vr;59.98005063556221;
7;STADT;Gemacht;q;0;4;4;6;q;1;0.6856565000016417;002;FSLK99;2019_Dec_03_1517;iat_vr;59.98005063556221;
7;HERVORRAGEND;positiv;p;0;5;5;17;p;1;0.680241300000489;002;FSLK99;2019_Dec_03_1517;iat_vr;59.98005063556221;
7;STEIN;Natur;p;0;6;6;4;p;1;0.7153121000010287;002;FSLK99;2019_Dec_03_1517;iat_vr;59.98005063556221;
7;BLUME;Natur;p;0;7;7;2;p;1;0.49883219999901485;002;FSLK99;2019_Dec_03_1517;iat_vr;59.98005063556221;
7;GEBÄUDE;Gemacht;q;0;8;8;5;q;1;0.5500070000016422;002;FSLK99;2019_Dec_03_1517;iat_vr;59.98005063556221;
7;LAMPE;Gemacht;q;0;9;9;9;q;1;0.5313915000006091;002;FSLK99;2019_Dec_03_1517;iat_vr;59.98005063556221;
7;KLEIDER;Gemacht;q;0;10;10;7;q;1;0.7320220000001427;002;FSLK99;2019_Dec_03_1517;iat_vr;59.98005063556221;
7;EINWANDFREI;positiv;p;0;11;11;16;p;1;0.6283492000002298;002;FSLK99;2019_Dec_03_1517;iat_vr;59.98005063556221;
7;SCHLIMM;negativ;q;0;12;12;10;q;1;0.5986391000005824;002;FSLK99;2019_Dec_03_1517;iat_vr;59.98005063556221;
7;SCHLECHT;negativ;q;0;13;13;11;q;1;0.5788415999995777;002;FSLK99;2019_Dec_03_1517;iat_vr;59.98005063556221;
7;TIER;Natur;p;0;14;14;3;p;1;0.6482060000016645;002;FSLK99;2019_Dec_03_1517;iat_vr;59.98005063556221;
7;AUSGEZEICHNET;positiv;p;0;15;15;15;p;1;0.5069280999996408;002;FSLK99;2019_Dec_03_1517;iat_vr;59.98005063556221;
7;NEGATIV;negativ;q;0;16;16;12;q;1;0.7450539000019489;002;FSLK99;2019_Dec_03_1517;iat_vr;59.98005063556221;
7;COMPUTER;Gemacht;q;0;17;17;8;q;1;0.7775155999988783;002;FSLK99;2019_Dec_03_1517;iat_vr;59.98005063556221;
7;SCHÄDLICH;negativ;q;0;18;18;13;q;1;0.5605930000019725;002;FSLK99;2019_Dec_03_1517;iat_vr;59.98005063556221;
7;BAUM;Natur;p;0;19;19;0;p;1;0.6325704999981099;002;FSLK99;2019_Dec_03_1517;iat_vr;59.98005063556221;
7;GEBÄUDE;Gemacht;q;1;0;20;5;q;1;0.5974919999971462;002;FSLK99;2019_Dec_03_1517;iat_vr;59.98005063556221;
7;KLEIDER;Gemacht;q;1;1;21;7;q;1;0.49771420000251965;002;FSLK99;2019_Dec_03_1517;iat_vr;59.98005063556221;
7;BLUME;Natur;p;1;2;22;2;p;1;0.5467682000016794;002;FSLK99;2019_Dec_03_1517;iat_vr;59.98005063556221;
7;WASSER;Natur;p;1;3;23;1;p;1;0.5794662999978755;002;FSLK99;2019_Dec_03_1517;iat_vr;59.98005063556221;
7;GUT;positiv;p;1;4;24;19;p;1;0.499961000001349;002;FSLK99;2019_Dec_03_1517;iat_vr;59.98005063556221;
7;TIER;Natur;p;1;5;25;3;p;1;0.515529799999058;002;FSLK99;2019_Dec_03_1517;iat_vr;59.98005063556221;
7;SCHLIMM;negativ;q;1;6;26;10;q;1;0.5149670999999216;002;FSLK99;2019_Dec_03_1517;iat_vr;59.98005063556221;
7;STADT;Gemacht;q;1;7;27;6;q;1;0.5963298999995459;002;FSLK99;2019_Dec_03_1517;iat_vr;59.98005063556221;
7;BAUM;Natur;p;1;8;28;0;p;1;0.5647537000004377;002;FSLK99;2019_Dec_03_1517;iat_vr;59.98005063556221;
7;POSITIV;positiv;p;1;9;29;18;p;1;0.49816869999995106;002;FSLK99;2019_Dec_03_1517;iat_vr;59.98005063556221;
7;HERVORRAGEND;positiv;p;1;10;30;17;p;1;0.5494652000015776;002;FSLK99;2019_Dec_03_1517;iat_vr;59.98005063556221;
7;EINWANDFREI;positiv;p;1;11;31;16;p;1;0.49483709999913117;002;FSLK99;2019_Dec_03_1517;iat_vr;59.98005063556221;
7;NEGATIV;negativ;q;1;12;32;12;q;1;0.616020400000707;002;FSLK99;2019_Dec_03_1517;iat_vr;59.98005063556221;
7;AUSGEZEICHNET;positiv;p;1;13;33;15;p;1;0.6301088999971398;002;FSLK99;2019_Dec_03_1517;iat_vr;59.98005063556221;
7;STEIN;Natur;p;1;14;34;4;p;1;0.5641618999979983;002;FSLK99;2019_Dec_03_1517;iat_vr;59.98005063556221;
7;SCHLECHT;negativ;q;1;15;35;11;q;1;0.4959149999995134;002;FSLK99;2019_Dec_03_1517;iat_vr;59.98005063556221;
7;SCHÄDLICH;negativ;q;1;16;36;13;q;1;0.5141920999994909;002;FSLK99;2019_Dec_03_1517;iat_vr;59.98005063556221;
7;COMPUTER;Gemacht;q;1;17;37;8;q;1;0.4939758999971673;002;FSLK99;2019_Dec_03_1517;iat_vr;59.98005063556221;
7;SCHWACH;negativ;q;1;18;38;14;q;1;0.46426530000098865;002;FSLK99;2019_Dec_03_1517;iat_vr;59.98005063556221;
7;LAMPE;Gemacht;q;1;19;39;9;q;1;0.5809170000029553;002;FSLK99;2019_Dec_03_1517;iat_vr;59.98005063556221;
;;;;;;;;;;;002;FSLK99;2019_Dec_03_1517;iat_vr;59.98005063556221;
