Block;Word;Category;CorrResp;trials.thisRepN;trials.thisTrialN;trials.thisN;trials.thisIndex;key_resp_2.keys;key_resp_2.corr;key_resp_2.rt;session;participant;date;expName;frameRate;
1;BLUME;Natur;q;0;0;0;2;q;1;0.9287715999998909;002;FSLM98;2019_Dec_04_1208;iat_vr;59.67950910020202;
1;BAUM;Natur;q;0;1;1;0;q;1;0.5782521000000997;002;FSLM98;2019_Dec_04_1208;iat_vr;59.67950910020202;
1;STADT;Gemacht;p;0;2;2;6;p;1;0.5771638000001076;002;FSLM98;2019_Dec_04_1208;iat_vr;59.67950910020202;
1;KLEIDER;Gemacht;p;0;3;3;7;p;1;0.6418777999997474;002;FSLM98;2019_Dec_04_1208;iat_vr;59.67950910020202;
1;TIER;Natur;q;0;4;4;3;q;1;0.6506749999998647;002;FSLM98;2019_Dec_04_1208;iat_vr;59.67950910020202;
1;WASSER;Natur;q;0;5;5;1;q;1;0.5686329000000114;002;FSLM98;2019_Dec_04_1208;iat_vr;59.67950910020202;
1;COMPUTER;Gemacht;p;0;6;6;8;p;1;0.5687559999996665;002;FSLM98;2019_Dec_04_1208;iat_vr;59.67950910020202;
1;LAMPE;Gemacht;p;0;7;7;9;p;1;0.6976911000001564;002;FSLM98;2019_Dec_04_1208;iat_vr;59.67950910020202;
1;STEIN;Natur;q;0;8;8;4;q;1;0.6927938999997423;002;FSLM98;2019_Dec_04_1208;iat_vr;59.67950910020202;
1;GEBÄUDE;Gemacht;p;0;9;9;5;p;1;0.5735802999997759;002;FSLM98;2019_Dec_04_1208;iat_vr;59.67950910020202;
1;STEIN;Natur;q;1;0;10;4;q;1;0.5351700999999593;002;FSLM98;2019_Dec_04_1208;iat_vr;59.67950910020202;
1;GEBÄUDE;Gemacht;p;1;1;11;5;p;1;0.7004072999998243;002;FSLM98;2019_Dec_04_1208;iat_vr;59.67950910020202;
1;STADT;Gemacht;p;1;2;12;6;p;1;0.5960116999999627;002;FSLM98;2019_Dec_04_1208;iat_vr;59.67950910020202;
1;LAMPE;Gemacht;p;1;3;13;9;q;0;0.5821040999999241;002;FSLM98;2019_Dec_04_1208;iat_vr;59.67950910020202;
1;BLUME;Natur;q;1;4;14;2;q;1;0.8186832999999751;002;FSLM98;2019_Dec_04_1208;iat_vr;59.67950910020202;
1;KLEIDER;Gemacht;p;1;5;15;7;p;1;0.8009926999998243;002;FSLM98;2019_Dec_04_1208;iat_vr;59.67950910020202;
1;BAUM;Natur;q;1;6;16;0;q;1;0.7824938999997357;002;FSLM98;2019_Dec_04_1208;iat_vr;59.67950910020202;
1;TIER;Natur;q;1;7;17;3;q;1;0.5974148999998761;002;FSLM98;2019_Dec_04_1208;iat_vr;59.67950910020202;
1;COMPUTER;Gemacht;p;1;8;18;8;p;1;0.6450204999996458;002;FSLM98;2019_Dec_04_1208;iat_vr;59.67950910020202;
1;WASSER;Natur;q;1;9;19;1;q;1;0.6149120999998559;002;FSLM98;2019_Dec_04_1208;iat_vr;59.67950910020202;
;;;;;;;;;;;002;FSLM98;2019_Dec_04_1208;iat_vr;59.67950910020202;
2;SCHWACH;negativ;q;0;0;0;4;q;1;1.33600400000023;002;FSLM98;2019_Dec_04_1208;iat_vr;59.67950910020202;
2;SCHLIMM;negativ;q;0;1;1;0;q;1;0.6597045999997135;002;FSLM98;2019_Dec_04_1208;iat_vr;59.67950910020202;
2;SCHÄDLICH;negativ;q;0;2;2;3;q;1;0.5850990999997521;002;FSLM98;2019_Dec_04_1208;iat_vr;59.67950910020202;
2;EINWANDFREI;positiv;p;0;3;3;6;p;1;0.6811662999998589;002;FSLM98;2019_Dec_04_1208;iat_vr;59.67950910020202;
2;GUT;positiv;p;0;4;4;9;p;1;0.5255864999999176;002;FSLM98;2019_Dec_04_1208;iat_vr;59.67950910020202;
2;POSITIV;positiv;p;0;5;5;8;p;1;0.6927420000001803;002;FSLM98;2019_Dec_04_1208;iat_vr;59.67950910020202;
2;NEGATIV;negativ;q;0;6;6;2;q;1;0.6689384999999675;002;FSLM98;2019_Dec_04_1208;iat_vr;59.67950910020202;
2;SCHLECHT;negativ;q;0;7;7;1;q;1;0.5647459000001618;002;FSLM98;2019_Dec_04_1208;iat_vr;59.67950910020202;
2;HERVORRAGEND;positiv;p;0;8;8;7;p;1;0.695724700000028;002;FSLM98;2019_Dec_04_1208;iat_vr;59.67950910020202;
2;AUSGEZEICHNET;positiv;p;0;9;9;5;p;1;0.5900851999999759;002;FSLM98;2019_Dec_04_1208;iat_vr;59.67950910020202;
2;SCHLIMM;negativ;q;1;0;10;0;q;1;0.7119581000001745;002;FSLM98;2019_Dec_04_1208;iat_vr;59.67950910020202;
2;POSITIV;positiv;p;1;1;11;8;p;1;0.7472806999999193;002;FSLM98;2019_Dec_04_1208;iat_vr;59.67950910020202;
2;NEGATIV;negativ;q;1;2;12;2;q;1;0.6440415000001849;002;FSLM98;2019_Dec_04_1208;iat_vr;59.67950910020202;
2;SCHLECHT;negativ;q;1;3;13;1;q;1;1.064019300000382;002;FSLM98;2019_Dec_04_1208;iat_vr;59.67950910020202;
2;AUSGEZEICHNET;positiv;p;1;4;14;5;p;1;0.7946062000000893;002;FSLM98;2019_Dec_04_1208;iat_vr;59.67950910020202;
2;SCHWACH;negativ;q;1;5;15;4;q;1;1.1629577000003337;002;FSLM98;2019_Dec_04_1208;iat_vr;59.67950910020202;
2;EINWANDFREI;positiv;p;1;6;16;6;p;1;0.7521816000003128;002;FSLM98;2019_Dec_04_1208;iat_vr;59.67950910020202;
2;GUT;positiv;p;1;7;17;9;p;1;0.44818220000024667;002;FSLM98;2019_Dec_04_1208;iat_vr;59.67950910020202;
2;SCHÄDLICH;negativ;q;1;8;18;3;q;1;0.6823843000001943;002;FSLM98;2019_Dec_04_1208;iat_vr;59.67950910020202;
2;HERVORRAGEND;positiv;p;1;9;19;7;p;1;0.6442747999999483;002;FSLM98;2019_Dec_04_1208;iat_vr;59.67950910020202;
;;;;;;;;;;;002;FSLM98;2019_Dec_04_1208;iat_vr;59.67950910020202;
3;HERVORRAGEND;positiv;p;0;0;0;7;p;1;1.618149099999755;002;FSLM98;2019_Dec_04_1208;iat_vr;59.67950910020202;
3;STEIN;Natur;q;0;1;1;14;q;1;0.9325498000002881;002;FSLM98;2019_Dec_04_1208;iat_vr;59.67950910020202;
3;POSITIV;positiv;p;0;2;2;8;p;1;0.6682554999997592;002;FSLM98;2019_Dec_04_1208;iat_vr;59.67950910020202;
3;SCHWACH;negativ;q;0;3;3;4;q;1;0.8127365000000282;002;FSLM98;2019_Dec_04_1208;iat_vr;59.67950910020202;
3;AUSGEZEICHNET;positiv;p;0;4;4;5;p;1;0.6780659999999443;002;FSLM98;2019_Dec_04_1208;iat_vr;59.67950910020202;
3;SCHLECHT;negativ;q;0;5;5;1;q;1;0.8461693000003834;002;FSLM98;2019_Dec_04_1208;iat_vr;59.67950910020202;
3;NEGATIV;negativ;q;0;6;6;2;q;1;0.8020023000003675;002;FSLM98;2019_Dec_04_1208;iat_vr;59.67950910020202;
3;WASSER;Natur;q;0;7;7;11;q;1;1.2640548999997918;002;FSLM98;2019_Dec_04_1208;iat_vr;59.67950910020202;
3;EINWANDFREI;positiv;p;0;8;8;6;p;1;0.9131065999999919;002;FSLM98;2019_Dec_04_1208;iat_vr;59.67950910020202;
3;COMPUTER;Gemacht;p;0;9;9;18;p;1;0.5470610000002125;002;FSLM98;2019_Dec_04_1208;iat_vr;59.67950910020202;
3;BLUME;Natur;q;0;10;10;12;q;1;0.6153654999998253;002;FSLM98;2019_Dec_04_1208;iat_vr;59.67950910020202;
3;BAUM;Natur;q;0;11;11;10;q;1;0.7469636000000719;002;FSLM98;2019_Dec_04_1208;iat_vr;59.67950910020202;
3;SCHÄDLICH;negativ;q;0;12;12;3;q;1;0.5841826999999284;002;FSLM98;2019_Dec_04_1208;iat_vr;59.67950910020202;
3;GEBÄUDE;Gemacht;p;0;13;13;15;p;1;0.7649630000000798;002;FSLM98;2019_Dec_04_1208;iat_vr;59.67950910020202;
3;LAMPE;Gemacht;p;0;14;14;19;p;1;0.8472729999998592;002;FSLM98;2019_Dec_04_1208;iat_vr;59.67950910020202;
3;STADT;Gemacht;p;0;15;15;16;p;1;0.5808644000003369;002;FSLM98;2019_Dec_04_1208;iat_vr;59.67950910020202;
3;GUT;positiv;p;0;16;16;9;p;1;0.7983836999997038;002;FSLM98;2019_Dec_04_1208;iat_vr;59.67950910020202;
3;KLEIDER;Gemacht;p;0;17;17;17;p;1;0.6294565999996848;002;FSLM98;2019_Dec_04_1208;iat_vr;59.67950910020202;
3;TIER;Natur;q;0;18;18;13;q;1;0.6809980000002724;002;FSLM98;2019_Dec_04_1208;iat_vr;59.67950910020202;
3;SCHLIMM;negativ;q;0;19;19;0;q;1;0.6337367999999515;002;FSLM98;2019_Dec_04_1208;iat_vr;59.67950910020202;
;;;;;;;;;;;002;FSLM98;2019_Dec_04_1208;iat_vr;59.67950910020202;
4;STADT;Gemacht;p;0;0;0;16;p;1;0.7773749000002681;002;FSLM98;2019_Dec_04_1208;iat_vr;59.67950910020202;
4;WASSER;Natur;q;0;1;1;11;q;1;0.7144272999998975;002;FSLM98;2019_Dec_04_1208;iat_vr;59.67950910020202;
4;SCHÄDLICH;negativ;q;0;2;2;3;q;1;0.630047999999988;002;FSLM98;2019_Dec_04_1208;iat_vr;59.67950910020202;
4;SCHLECHT;negativ;q;0;3;3;1;q;1;0.4961545000001024;002;FSLM98;2019_Dec_04_1208;iat_vr;59.67950910020202;
4;SCHWACH;negativ;q;0;4;4;4;q;1;0.5348109999999906;002;FSLM98;2019_Dec_04_1208;iat_vr;59.67950910020202;
4;KLEIDER;Gemacht;p;0;5;5;17;p;1;0.681492100000014;002;FSLM98;2019_Dec_04_1208;iat_vr;59.67950910020202;
4;BAUM;Natur;q;0;6;6;10;q;1;0.6978789999998298;002;FSLM98;2019_Dec_04_1208;iat_vr;59.67950910020202;
4;BLUME;Natur;q;0;7;7;12;q;1;0.5151244000003317;002;FSLM98;2019_Dec_04_1208;iat_vr;59.67950910020202;
4;AUSGEZEICHNET;positiv;p;0;8;8;5;p;1;0.8272355000003699;002;FSLM98;2019_Dec_04_1208;iat_vr;59.67950910020202;
4;GUT;positiv;p;0;9;9;9;p;1;0.6497905999999602;002;FSLM98;2019_Dec_04_1208;iat_vr;59.67950910020202;
4;GEBÄUDE;Gemacht;p;0;10;10;15;q;0;1.1313163999998324;002;FSLM98;2019_Dec_04_1208;iat_vr;59.67950910020202;
4;HERVORRAGEND;positiv;p;0;11;11;7;p;1;1.9274250999997093;002;FSLM98;2019_Dec_04_1208;iat_vr;59.67950910020202;
4;POSITIV;positiv;p;0;12;12;8;p;1;0.6147380000002158;002;FSLM98;2019_Dec_04_1208;iat_vr;59.67950910020202;
4;TIER;Natur;q;0;13;13;13;q;1;0.8150445999999647;002;FSLM98;2019_Dec_04_1208;iat_vr;59.67950910020202;
4;SCHLIMM;negativ;q;0;14;14;0;q;1;0.5453841999997167;002;FSLM98;2019_Dec_04_1208;iat_vr;59.67950910020202;
4;COMPUTER;Gemacht;p;0;15;15;18;p;1;0.7300445000000764;002;FSLM98;2019_Dec_04_1208;iat_vr;59.67950910020202;
4;NEGATIV;negativ;q;0;16;16;2;q;1;0.9356700999996974;002;FSLM98;2019_Dec_04_1208;iat_vr;59.67950910020202;
4;LAMPE;Gemacht;p;0;17;17;19;p;1;0.8524442999996609;002;FSLM98;2019_Dec_04_1208;iat_vr;59.67950910020202;
4;EINWANDFREI;positiv;p;0;18;18;6;p;1;1.5356388999998671;002;FSLM98;2019_Dec_04_1208;iat_vr;59.67950910020202;
4;STEIN;Natur;q;0;19;19;14;q;1;0.6304129999998622;002;FSLM98;2019_Dec_04_1208;iat_vr;59.67950910020202;
4;SCHLIMM;negativ;q;1;0;20;0;q;1;0.5150518000000375;002;FSLM98;2019_Dec_04_1208;iat_vr;59.67950910020202;
4;GEBÄUDE;Gemacht;p;1;1;21;15;p;1;0.696260600000187;002;FSLM98;2019_Dec_04_1208;iat_vr;59.67950910020202;
4;BLUME;Natur;q;1;2;22;12;q;1;0.8292437000000064;002;FSLM98;2019_Dec_04_1208;iat_vr;59.67950910020202;
4;SCHÄDLICH;negativ;q;1;3;23;3;q;1;0.566859900000054;002;FSLM98;2019_Dec_04_1208;iat_vr;59.67950910020202;
4;BAUM;Natur;q;1;4;24;10;q;1;0.7171026000000893;002;FSLM98;2019_Dec_04_1208;iat_vr;59.67950910020202;
4;STADT;Gemacht;p;1;5;25;16;p;1;1.3855538999996497;002;FSLM98;2019_Dec_04_1208;iat_vr;59.67950910020202;
4;COMPUTER;Gemacht;p;1;6;26;18;p;1;0.9780101000001196;002;FSLM98;2019_Dec_04_1208;iat_vr;59.67950910020202;
4;KLEIDER;Gemacht;p;1;7;27;17;p;1;0.8186470000000554;002;FSLM98;2019_Dec_04_1208;iat_vr;59.67950910020202;
4;POSITIV;positiv;p;1;8;28;8;p;1;0.480074500000228;002;FSLM98;2019_Dec_04_1208;iat_vr;59.67950910020202;
4;SCHWACH;negativ;q;1;9;29;4;q;1;0.648228300000028;002;FSLM98;2019_Dec_04_1208;iat_vr;59.67950910020202;
4;LAMPE;Gemacht;p;1;10;30;19;p;1;0.7133398000000852;002;FSLM98;2019_Dec_04_1208;iat_vr;59.67950910020202;
4;HERVORRAGEND;positiv;p;1;11;31;7;p;1;0.7126382999999805;002;FSLM98;2019_Dec_04_1208;iat_vr;59.67950910020202;
4;STEIN;Natur;q;1;12;32;14;q;1;0.7488334999998187;002;FSLM98;2019_Dec_04_1208;iat_vr;59.67950910020202;
4;GUT;positiv;p;1;13;33;9;p;1;0.6802838000003248;002;FSLM98;2019_Dec_04_1208;iat_vr;59.67950910020202;
4;TIER;Natur;q;1;14;34;13;q;1;0.5826519000002008;002;FSLM98;2019_Dec_04_1208;iat_vr;59.67950910020202;
4;SCHLECHT;negativ;q;1;15;35;1;q;1;0.5142252999999073;002;FSLM98;2019_Dec_04_1208;iat_vr;59.67950910020202;
4;AUSGEZEICHNET;positiv;p;1;16;36;5;p;1;0.6778459000001931;002;FSLM98;2019_Dec_04_1208;iat_vr;59.67950910020202;
4;EINWANDFREI;positiv;p;1;17;37;6;p;1;0.6636971999996604;002;FSLM98;2019_Dec_04_1208;iat_vr;59.67950910020202;
4;WASSER;Natur;q;1;18;38;11;q;1;0.6471542999997837;002;FSLM98;2019_Dec_04_1208;iat_vr;59.67950910020202;
4;NEGATIV;negativ;q;1;19;39;2;q;1;1.1131132999998954;002;FSLM98;2019_Dec_04_1208;iat_vr;59.67950910020202;
;;;;;;;;;;;002;FSLM98;2019_Dec_04_1208;iat_vr;59.67950910020202;
5;STEIN;Natur;p;0;0;0;4;p;1;1.1617934999999306;002;FSLM98;2019_Dec_04_1208;iat_vr;59.67950910020202;
5;GEBÄUDE;Gemacht;q;0;1;1;5;q;1;0.6304686999997102;002;FSLM98;2019_Dec_04_1208;iat_vr;59.67950910020202;
5;STADT;Gemacht;q;0;2;2;6;q;1;0.6189150999998674;002;FSLM98;2019_Dec_04_1208;iat_vr;59.67950910020202;
5;BLUME;Natur;p;0;3;3;2;p;1;0.6191936000000169;002;FSLM98;2019_Dec_04_1208;iat_vr;59.67950910020202;
5;WASSER;Natur;p;0;4;4;1;p;1;0.7318156999999701;002;FSLM98;2019_Dec_04_1208;iat_vr;59.67950910020202;
5;BAUM;Natur;p;0;5;5;0;p;1;0.8655306999999084;002;FSLM98;2019_Dec_04_1208;iat_vr;59.67950910020202;
5;TIER;Natur;p;0;6;6;3;p;1;0.7139947999999094;002;FSLM98;2019_Dec_04_1208;iat_vr;59.67950910020202;
5;KLEIDER;Gemacht;q;0;7;7;7;q;1;0.6336519999999837;002;FSLM98;2019_Dec_04_1208;iat_vr;59.67950910020202;
5;LAMPE;Gemacht;q;0;8;8;9;q;1;0.5688586999999643;002;FSLM98;2019_Dec_04_1208;iat_vr;59.67950910020202;
5;COMPUTER;Gemacht;q;0;9;9;8;q;1;0.5481433999998444;002;FSLM98;2019_Dec_04_1208;iat_vr;59.67950910020202;
5;BAUM;Natur;p;1;0;10;0;p;1;0.630752499999744;002;FSLM98;2019_Dec_04_1208;iat_vr;59.67950910020202;
5;GEBÄUDE;Gemacht;q;1;1;11;5;q;1;0.6688844000000245;002;FSLM98;2019_Dec_04_1208;iat_vr;59.67950910020202;
5;COMPUTER;Gemacht;q;1;2;12;8;q;1;1.5803581000000122;002;FSLM98;2019_Dec_04_1208;iat_vr;59.67950910020202;
5;TIER;Natur;p;1;3;13;3;p;1;0.5803052999999636;002;FSLM98;2019_Dec_04_1208;iat_vr;59.67950910020202;
5;KLEIDER;Gemacht;q;1;4;14;7;q;1;0.8161187999999129;002;FSLM98;2019_Dec_04_1208;iat_vr;59.67950910020202;
5;WASSER;Natur;p;1;5;15;1;p;1;0.7309476000000359;002;FSLM98;2019_Dec_04_1208;iat_vr;59.67950910020202;
5;STADT;Gemacht;q;1;6;16;6;q;1;0.6608768999999484;002;FSLM98;2019_Dec_04_1208;iat_vr;59.67950910020202;
5;STEIN;Natur;p;1;7;17;4;p;1;0.5980685999998059;002;FSLM98;2019_Dec_04_1208;iat_vr;59.67950910020202;
5;BLUME;Natur;p;1;8;18;2;p;1;0.48160839999991367;002;FSLM98;2019_Dec_04_1208;iat_vr;59.67950910020202;
5;LAMPE;Gemacht;q;1;9;19;9;q;1;0.6857697999998891;002;FSLM98;2019_Dec_04_1208;iat_vr;59.67950910020202;
;;;;;;;;;;;002;FSLM98;2019_Dec_04_1208;iat_vr;59.67950910020202;
6;SCHLECHT;negativ;q;0;0;0;11;q;1;0.832392400000117;002;FSLM98;2019_Dec_04_1208;iat_vr;59.67950910020202;
6;SCHLIMM;negativ;q;0;1;1;10;q;1;0.5140981000004103;002;FSLM98;2019_Dec_04_1208;iat_vr;59.67950910020202;
6;EINWANDFREI;positiv;p;0;2;2;16;p;1;0.7118577999999616;002;FSLM98;2019_Dec_04_1208;iat_vr;59.67950910020202;
6;TIER;Natur;p;0;3;3;3;p;1;0.7819908000001305;002;FSLM98;2019_Dec_04_1208;iat_vr;59.67950910020202;
6;LAMPE;Gemacht;q;0;4;4;9;q;1;0.5751834000002418;002;FSLM98;2019_Dec_04_1208;iat_vr;59.67950910020202;
6;KLEIDER;Gemacht;q;0;5;5;7;q;1;0.5344383000001471;002;FSLM98;2019_Dec_04_1208;iat_vr;59.67950910020202;
6;GUT;positiv;p;0;6;6;19;p;1;0.5489732000000913;002;FSLM98;2019_Dec_04_1208;iat_vr;59.67950910020202;
6;SCHWACH;negativ;q;0;7;7;14;q;1;0.66243570000006;002;FSLM98;2019_Dec_04_1208;iat_vr;59.67950910020202;
6;BAUM;Natur;p;0;8;8;0;p;1;0.6813978999998653;002;FSLM98;2019_Dec_04_1208;iat_vr;59.67950910020202;
6;GEBÄUDE;Gemacht;q;0;9;9;5;q;1;0.6858416000000034;002;FSLM98;2019_Dec_04_1208;iat_vr;59.67950910020202;
6;WASSER;Natur;p;0;10;10;1;p;1;0.6812073999999484;002;FSLM98;2019_Dec_04_1208;iat_vr;59.67950910020202;
6;SCHÄDLICH;negativ;q;0;11;11;13;q;1;0.6643629000000146;002;FSLM98;2019_Dec_04_1208;iat_vr;59.67950910020202;
6;HERVORRAGEND;positiv;p;0;12;12;17;p;1;0.7097710000002735;002;FSLM98;2019_Dec_04_1208;iat_vr;59.67950910020202;
6;POSITIV;positiv;p;0;13;13;18;p;1;0.5518216000000393;002;FSLM98;2019_Dec_04_1208;iat_vr;59.67950910020202;
6;BLUME;Natur;p;0;14;14;2;p;1;0.4822893999998996;002;FSLM98;2019_Dec_04_1208;iat_vr;59.67950910020202;
6;NEGATIV;negativ;q;0;15;15;12;q;1;0.5657232999997177;002;FSLM98;2019_Dec_04_1208;iat_vr;59.67950910020202;
6;AUSGEZEICHNET;positiv;p;0;16;16;15;p;1;0.6986274999999296;002;FSLM98;2019_Dec_04_1208;iat_vr;59.67950910020202;
6;COMPUTER;Gemacht;q;0;17;17;8;q;1;0.7646080999998048;002;FSLM98;2019_Dec_04_1208;iat_vr;59.67950910020202;
6;STEIN;Natur;p;0;18;18;4;p;1;1.0487410999999156;002;FSLM98;2019_Dec_04_1208;iat_vr;59.67950910020202;
6;STADT;Gemacht;q;0;19;19;6;p;0;0.4314545000001999;002;FSLM98;2019_Dec_04_1208;iat_vr;59.67950910020202;
;;;;;;;;;;;002;FSLM98;2019_Dec_04_1208;iat_vr;59.67950910020202;
7;GEBÄUDE;Gemacht;q;0;0;0;5;q;1;0.7531348000002254;002;FSLM98;2019_Dec_04_1208;iat_vr;59.67950910020202;
7;EINWANDFREI;positiv;p;0;1;1;16;p;1;0.7466690000001108;002;FSLM98;2019_Dec_04_1208;iat_vr;59.67950910020202;
7;STEIN;Natur;p;0;2;2;4;p;1;0.6339232000000266;002;FSLM98;2019_Dec_04_1208;iat_vr;59.67950910020202;
7;NEGATIV;negativ;q;0;3;3;12;q;1;0.6124703999998928;002;FSLM98;2019_Dec_04_1208;iat_vr;59.67950910020202;
7;COMPUTER;Gemacht;q;0;4;4;8;q;1;0.748701500000152;002;FSLM98;2019_Dec_04_1208;iat_vr;59.67950910020202;
7;SCHWACH;negativ;q;0;5;5;14;q;1;0.5953825999999935;002;FSLM98;2019_Dec_04_1208;iat_vr;59.67950910020202;
7;TIER;Natur;p;0;6;6;3;p;1;0.8486514999999599;002;FSLM98;2019_Dec_04_1208;iat_vr;59.67950910020202;
7;KLEIDER;Gemacht;q;0;7;7;7;q;1;0.7508007000001271;002;FSLM98;2019_Dec_04_1208;iat_vr;59.67950910020202;
7;BAUM;Natur;p;0;8;8;0;p;1;0.9841569000000163;002;FSLM98;2019_Dec_04_1208;iat_vr;59.67950910020202;
7;HERVORRAGEND;positiv;p;0;9;9;17;p;1;1.016483899999912;002;FSLM98;2019_Dec_04_1208;iat_vr;59.67950910020202;
7;BLUME;Natur;p;0;10;10;2;p;1;0.5816429999999855;002;FSLM98;2019_Dec_04_1208;iat_vr;59.67950910020202;
7;LAMPE;Gemacht;q;0;11;11;9;q;1;0.6641740000000027;002;FSLM98;2019_Dec_04_1208;iat_vr;59.67950910020202;
7;WASSER;Natur;p;0;12;12;1;p;1;0.7482201999996505;002;FSLM98;2019_Dec_04_1208;iat_vr;59.67950910020202;
7;SCHÄDLICH;negativ;q;0;13;13;13;q;1;0.6636340000000018;002;FSLM98;2019_Dec_04_1208;iat_vr;59.67950910020202;
7;AUSGEZEICHNET;positiv;p;0;14;14;15;q;0;0.6683392999998432;002;FSLM98;2019_Dec_04_1208;iat_vr;59.67950910020202;
7;SCHLIMM;negativ;q;0;15;15;10;q;1;1.1482705999997052;002;FSLM98;2019_Dec_04_1208;iat_vr;59.67950910020202;
7;POSITIV;positiv;p;0;16;16;18;p;1;0.6279800000002069;002;FSLM98;2019_Dec_04_1208;iat_vr;59.67950910020202;
7;STADT;Gemacht;q;0;17;17;6;q;1;0.866305900000043;002;FSLM98;2019_Dec_04_1208;iat_vr;59.67950910020202;
7;GUT;positiv;p;0;18;18;19;p;1;0.5685076999998273;002;FSLM98;2019_Dec_04_1208;iat_vr;59.67950910020202;
7;SCHLECHT;negativ;q;0;19;19;11;q;1;0.612543100000039;002;FSLM98;2019_Dec_04_1208;iat_vr;59.67950910020202;
7;POSITIV;positiv;p;1;0;20;18;p;1;0.7475448000000142;002;FSLM98;2019_Dec_04_1208;iat_vr;59.67950910020202;
7;BAUM;Natur;p;1;1;21;0;p;1;0.7622126000001117;002;FSLM98;2019_Dec_04_1208;iat_vr;59.67950910020202;
7;GUT;positiv;p;1;2;22;19;p;1;0.5826600000000326;002;FSLM98;2019_Dec_04_1208;iat_vr;59.67950910020202;
7;LAMPE;Gemacht;q;1;3;23;9;q;1;0.931720999999925;002;FSLM98;2019_Dec_04_1208;iat_vr;59.67950910020202;
7;AUSGEZEICHNET;positiv;p;1;4;24;15;p;1;0.6442916999999397;002;FSLM98;2019_Dec_04_1208;iat_vr;59.67950910020202;
7;COMPUTER;Gemacht;q;1;5;25;8;q;1;0.6645114999996622;002;FSLM98;2019_Dec_04_1208;iat_vr;59.67950910020202;
7;GEBÄUDE;Gemacht;q;1;6;26;5;q;1;0.7150400000000445;002;FSLM98;2019_Dec_04_1208;iat_vr;59.67950910020202;
7;STEIN;Natur;p;1;7;27;4;p;1;0.7316679000000477;002;FSLM98;2019_Dec_04_1208;iat_vr;59.67950910020202;
7;SCHLECHT;negativ;q;1;8;28;11;q;1;0.8804807999999866;002;FSLM98;2019_Dec_04_1208;iat_vr;59.67950910020202;
7;STADT;Gemacht;q;1;9;29;6;q;1;0.6855988000002071;002;FSLM98;2019_Dec_04_1208;iat_vr;59.67950910020202;
7;BLUME;Natur;p;1;10;30;2;p;1;0.6484243999998398;002;FSLM98;2019_Dec_04_1208;iat_vr;59.67950910020202;
7;WASSER;Natur;p;1;11;31;1;p;1;0.5980727000001025;002;FSLM98;2019_Dec_04_1208;iat_vr;59.67950910020202;
7;SCHLIMM;negativ;q;1;12;32;10;q;1;0.6294603999999708;002;FSLM98;2019_Dec_04_1208;iat_vr;59.67950910020202;
7;TIER;Natur;p;1;13;33;3;p;1;0.718378500000199;002;FSLM98;2019_Dec_04_1208;iat_vr;59.67950910020202;
7;KLEIDER;Gemacht;q;1;14;34;7;q;1;0.647709500000019;002;FSLM98;2019_Dec_04_1208;iat_vr;59.67950910020202;
7;SCHÄDLICH;negativ;q;1;15;35;13;q;1;0.7781629999999495;002;FSLM98;2019_Dec_04_1208;iat_vr;59.67950910020202;
7;HERVORRAGEND;positiv;p;1;16;36;17;p;1;0.6269549999997253;002;FSLM98;2019_Dec_04_1208;iat_vr;59.67950910020202;
7;SCHWACH;negativ;q;1;17;37;14;q;1;1.2476086000001487;002;FSLM98;2019_Dec_04_1208;iat_vr;59.67950910020202;
7;EINWANDFREI;positiv;p;1;18;38;16;p;1;0.645616599999812;002;FSLM98;2019_Dec_04_1208;iat_vr;59.67950910020202;
7;NEGATIV;negativ;q;1;19;39;12;q;1;0.6296097000004011;002;FSLM98;2019_Dec_04_1208;iat_vr;59.67950910020202;
;;;;;;;;;;;002;FSLM98;2019_Dec_04_1208;iat_vr;59.67950910020202;
