Block;Word;Category;CorrResp;trials.thisRepN;trials.thisTrialN;trials.thisN;trials.thisIndex;key_resp_2.keys;key_resp_2.corr;key_resp_2.rt;session;participant;date;expName;frameRate;
1;TIER;Natur;q;0;0;0;3;q;1;3.113902799999778;002;FSLW90;2019_Dec_03_1600;iat_vr;59.867692400306325;
1;BAUM;Natur;q;0;1;1;0;q;1;0.7055100999969;002;FSLW90;2019_Dec_03_1600;iat_vr;59.867692400306325;
1;COMPUTER;Gemacht;p;0;2;2;8;p;1;0.7054465000001073;002;FSLW90;2019_Dec_03_1600;iat_vr;59.867692400306325;
1;STEIN;Natur;q;0;3;3;4;q;1;0.7568343999992067;002;FSLW90;2019_Dec_03_1600;iat_vr;59.867692400306325;
1;STADT;Gemacht;p;0;4;4;6;p;1;0.7473307000000204;002;FSLW90;2019_Dec_03_1600;iat_vr;59.867692400306325;
1;KLEIDER;Gemacht;p;0;5;5;7;p;1;0.7692354999999225;002;FSLW90;2019_Dec_03_1600;iat_vr;59.867692400306325;
1;LAMPE;Gemacht;p;0;6;6;9;p;1;0.6815408000002208;002;FSLW90;2019_Dec_03_1600;iat_vr;59.867692400306325;
1;GEBÄUDE;Gemacht;p;0;7;7;5;p;1;0.6857020999996166;002;FSLW90;2019_Dec_03_1600;iat_vr;59.867692400306325;
1;BLUME;Natur;q;0;8;8;2;q;1;0.6830791000029421;002;FSLW90;2019_Dec_03_1600;iat_vr;59.867692400306325;
1;WASSER;Natur;q;0;9;9;1;q;1;0.712360900000931;002;FSLW90;2019_Dec_03_1600;iat_vr;59.867692400306325;
1;WASSER;Natur;q;1;0;10;1;q;1;0.6670675999994273;002;FSLW90;2019_Dec_03_1600;iat_vr;59.867692400306325;
1;KLEIDER;Gemacht;p;1;1;11;7;p;1;0.713857899998402;002;FSLW90;2019_Dec_03_1600;iat_vr;59.867692400306325;
1;BLUME;Natur;q;1;2;12;2;q;1;0.712832499997603;002;FSLW90;2019_Dec_03_1600;iat_vr;59.867692400306325;
1;BAUM;Natur;q;1;3;13;0;q;1;0.6332968000024266;002;FSLW90;2019_Dec_03_1600;iat_vr;59.867692400306325;
1;COMPUTER;Gemacht;p;1;4;14;8;p;1;0.612161200002447;002;FSLW90;2019_Dec_03_1600;iat_vr;59.867692400306325;
1;STADT;Gemacht;p;1;5;15;6;p;1;1.413901200001419;002;FSLW90;2019_Dec_03_1600;iat_vr;59.867692400306325;
1;LAMPE;Gemacht;p;1;6;16;9;p;1;0.6803008999995654;002;FSLW90;2019_Dec_03_1600;iat_vr;59.867692400306325;
1;GEBÄUDE;Gemacht;p;1;7;17;5;p;1;0.6479966999977478;002;FSLW90;2019_Dec_03_1600;iat_vr;59.867692400306325;
1;TIER;Natur;q;1;8;18;3;q;1;2.4017378999997163;002;FSLW90;2019_Dec_03_1600;iat_vr;59.867692400306325;
1;STEIN;Natur;q;1;9;19;4;q;1;1.6309360999985074;002;FSLW90;2019_Dec_03_1600;iat_vr;59.867692400306325;
;;;;;;;;;;;002;FSLW90;2019_Dec_03_1600;iat_vr;59.867692400306325;
2;GUT;positiv;p;0;0;0;9;p;1;1.3262034999970638;002;FSLW90;2019_Dec_03_1600;iat_vr;59.867692400306325;
2;AUSGEZEICHNET;positiv;p;0;1;1;5;p;1;0.5953143000006094;002;FSLW90;2019_Dec_03_1600;iat_vr;59.867692400306325;
2;SCHWACH;negativ;q;0;2;2;4;q;1;0.6479116000009526;002;FSLW90;2019_Dec_03_1600;iat_vr;59.867692400306325;
2;HERVORRAGEND;positiv;p;0;3;3;7;p;1;0.6404714999989665;002;FSLW90;2019_Dec_03_1600;iat_vr;59.867692400306325;
2;SCHÄDLICH;negativ;q;0;4;4;3;q;1;0.8473427000026277;002;FSLW90;2019_Dec_03_1600;iat_vr;59.867692400306325;
2;POSITIV;positiv;p;0;5;5;8;p;1;0.6307555000021239;002;FSLW90;2019_Dec_03_1600;iat_vr;59.867692400306325;
2;SCHLIMM;negativ;q;0;6;6;0;q;1;0.7320032999996329;002;FSLW90;2019_Dec_03_1600;iat_vr;59.867692400306325;
2;EINWANDFREI;positiv;p;0;7;7;6;p;1;0.7271170999993046;002;FSLW90;2019_Dec_03_1600;iat_vr;59.867692400306325;
2;NEGATIV;negativ;q;0;8;8;2;q;1;0.6622234999995271;002;FSLW90;2019_Dec_03_1600;iat_vr;59.867692400306325;
2;SCHLECHT;negativ;q;0;9;9;1;q;1;0.8622486999993271;002;FSLW90;2019_Dec_03_1600;iat_vr;59.867692400306325;
2;POSITIV;positiv;p;1;0;10;8;p;1;0.7147084999996878;002;FSLW90;2019_Dec_03_1600;iat_vr;59.867692400306325;
2;SCHWACH;negativ;q;1;1;11;4;q;1;0.7303272000026482;002;FSLW90;2019_Dec_03_1600;iat_vr;59.867692400306325;
2;AUSGEZEICHNET;positiv;p;1;2;12;5;p;1;0.6929836000017531;002;FSLW90;2019_Dec_03_1600;iat_vr;59.867692400306325;
2;HERVORRAGEND;positiv;p;1;3;13;7;p;1;0.6465033999993466;002;FSLW90;2019_Dec_03_1600;iat_vr;59.867692400306325;
2;NEGATIV;negativ;q;1;4;14;2;q;1;0.7277557000015804;002;FSLW90;2019_Dec_03_1600;iat_vr;59.867692400306325;
2;SCHLECHT;negativ;q;1;5;15;1;q;1;1.311448800002836;002;FSLW90;2019_Dec_03_1600;iat_vr;59.867692400306325;
2;SCHÄDLICH;negativ;q;1;6;16;3;q;1;0.7474638999992749;002;FSLW90;2019_Dec_03_1600;iat_vr;59.867692400306325;
2;GUT;positiv;p;1;7;17;9;p;1;1.4486986000010802;002;FSLW90;2019_Dec_03_1600;iat_vr;59.867692400306325;
2;EINWANDFREI;positiv;p;1;8;18;6;p;1;0.6448125999995682;002;FSLW90;2019_Dec_03_1600;iat_vr;59.867692400306325;
2;SCHLIMM;negativ;q;1;9;19;0;q;1;0.8311923000001116;002;FSLW90;2019_Dec_03_1600;iat_vr;59.867692400306325;
;;;;;;;;;;;002;FSLW90;2019_Dec_03_1600;iat_vr;59.867692400306325;
3;TIER;Natur;q;0;0;0;13;q;1;1.8813915999999153;002;FSLW90;2019_Dec_03_1600;iat_vr;59.867692400306325;
3;KLEIDER;Gemacht;p;0;1;1;17;p;1;0.7311053999983415;002;FSLW90;2019_Dec_03_1600;iat_vr;59.867692400306325;
3;WASSER;Natur;q;0;2;2;11;q;1;0.8792027000017697;002;FSLW90;2019_Dec_03_1600;iat_vr;59.867692400306325;
3;AUSGEZEICHNET;positiv;p;0;3;3;5;p;1;0.8296832999985781;002;FSLW90;2019_Dec_03_1600;iat_vr;59.867692400306325;
3;COMPUTER;Gemacht;p;0;4;4;18;p;1;2.2476886000004015;002;FSLW90;2019_Dec_03_1600;iat_vr;59.867692400306325;
3;HERVORRAGEND;positiv;p;0;5;5;7;p;1;1.2125856000020576;002;FSLW90;2019_Dec_03_1600;iat_vr;59.867692400306325;
3;EINWANDFREI;positiv;p;0;6;6;6;p;1;0.8349631000019144;002;FSLW90;2019_Dec_03_1600;iat_vr;59.867692400306325;
3;STEIN;Natur;q;0;7;7;14;q;1;1.080448400000023;002;FSLW90;2019_Dec_03_1600;iat_vr;59.867692400306325;
3;GEBÄUDE;Gemacht;p;0;8;8;15;p;1;1.5186661000007007;002;FSLW90;2019_Dec_03_1600;iat_vr;59.867692400306325;
3;BAUM;Natur;q;0;9;9;10;q;1;0.6825654000022041;002;FSLW90;2019_Dec_03_1600;iat_vr;59.867692400306325;
3;SCHWACH;negativ;q;0;10;10;4;q;1;1.0452877999996417;002;FSLW90;2019_Dec_03_1600;iat_vr;59.867692400306325;
3;BLUME;Natur;q;0;11;11;12;q;1;1.7812797000005958;002;FSLW90;2019_Dec_03_1600;iat_vr;59.867692400306325;
3;LAMPE;Gemacht;p;0;12;12;19;p;1;0.748933599999873;002;FSLW90;2019_Dec_03_1600;iat_vr;59.867692400306325;
3;SCHÄDLICH;negativ;q;0;13;13;3;q;1;2.5975600999991;002;FSLW90;2019_Dec_03_1600;iat_vr;59.867692400306325;
3;SCHLECHT;negativ;q;0;14;14;1;q;1;1.030151200000546;002;FSLW90;2019_Dec_03_1600;iat_vr;59.867692400306325;
3;POSITIV;positiv;p;0;15;15;8;p;1;0.7146264000002702;002;FSLW90;2019_Dec_03_1600;iat_vr;59.867692400306325;
3;STADT;Gemacht;p;0;16;16;16;p;1;0.9637480999990657;002;FSLW90;2019_Dec_03_1600;iat_vr;59.867692400306325;
3;GUT;positiv;p;0;17;17;9;p;1;0.6984163999986777;002;FSLW90;2019_Dec_03_1600;iat_vr;59.867692400306325;
3;SCHLIMM;negativ;q;0;18;18;0;q;1;0.8143872999971791;002;FSLW90;2019_Dec_03_1600;iat_vr;59.867692400306325;
3;NEGATIV;negativ;q;0;19;19;2;q;1;1.3142909000016516;002;FSLW90;2019_Dec_03_1600;iat_vr;59.867692400306325;
;;;;;;;;;;;002;FSLW90;2019_Dec_03_1600;iat_vr;59.867692400306325;
4;SCHÄDLICH;negativ;q;0;0;0;3;q;1;1.5096362000003865;002;FSLW90;2019_Dec_03_1600;iat_vr;59.867692400306325;
4;BAUM;Natur;q;0;1;1;10;q;1;2.283771300000808;002;FSLW90;2019_Dec_03_1600;iat_vr;59.867692400306325;
4;COMPUTER;Gemacht;p;0;2;2;18;p;1;0.8297275000004447;002;FSLW90;2019_Dec_03_1600;iat_vr;59.867692400306325;
4;AUSGEZEICHNET;positiv;p;0;3;3;5;p;1;0.6948211999988416;002;FSLW90;2019_Dec_03_1600;iat_vr;59.867692400306325;
4;SCHLECHT;negativ;q;0;4;4;1;q;1;0.7977174000006926;002;FSLW90;2019_Dec_03_1600;iat_vr;59.867692400306325;
4;GEBÄUDE;Gemacht;p;0;5;5;15;p;1;0.8629911999996693;002;FSLW90;2019_Dec_03_1600;iat_vr;59.867692400306325;
4;EINWANDFREI;positiv;p;0;6;6;6;p;1;2.7789531000016723;002;FSLW90;2019_Dec_03_1600;iat_vr;59.867692400306325;
4;GUT;positiv;p;0;7;7;9;p;1;0.6480309999969904;002;FSLW90;2019_Dec_03_1600;iat_vr;59.867692400306325;
4;LAMPE;Gemacht;p;0;8;8;19;p;1;0.8137252000014996;002;FSLW90;2019_Dec_03_1600;iat_vr;59.867692400306325;
4;TIER;Natur;q;0;9;9;13;q;1;0.7485633999967831;002;FSLW90;2019_Dec_03_1600;iat_vr;59.867692400306325;
4;STEIN;Natur;q;0;10;10;14;q;1;0.6981716999980563;002;FSLW90;2019_Dec_03_1600;iat_vr;59.867692400306325;
4;KLEIDER;Gemacht;p;0;11;11;17;p;1;0.7961246999984724;002;FSLW90;2019_Dec_03_1600;iat_vr;59.867692400306325;
4;BLUME;Natur;q;0;12;12;12;q;1;0.6986920000017562;002;FSLW90;2019_Dec_03_1600;iat_vr;59.867692400306325;
4;NEGATIV;negativ;q;0;13;13;2;q;1;0.8799442000017734;002;FSLW90;2019_Dec_03_1600;iat_vr;59.867692400306325;
4;STADT;Gemacht;p;0;14;14;16;p;1;1.0645975000006729;002;FSLW90;2019_Dec_03_1600;iat_vr;59.867692400306325;
4;SCHWACH;negativ;q;0;15;15;4;q;1;1.4984146999995573;002;FSLW90;2019_Dec_03_1600;iat_vr;59.867692400306325;
4;SCHLIMM;negativ;q;0;16;16;0;q;1;0.7593746999991708;002;FSLW90;2019_Dec_03_1600;iat_vr;59.867692400306325;
4;HERVORRAGEND;positiv;p;0;17;17;7;p;1;0.8118857999979809;002;FSLW90;2019_Dec_03_1600;iat_vr;59.867692400306325;
4;WASSER;Natur;q;0;18;18;11;q;1;0.847504299999855;002;FSLW90;2019_Dec_03_1600;iat_vr;59.867692400306325;
4;POSITIV;positiv;p;0;19;19;8;p;1;1.1817271999971126;002;FSLW90;2019_Dec_03_1600;iat_vr;59.867692400306325;
4;STEIN;Natur;q;1;0;20;14;q;1;0.7814402999974845;002;FSLW90;2019_Dec_03_1600;iat_vr;59.867692400306325;
4;SCHLECHT;negativ;q;1;1;21;1;q;1;0.9137186000007205;002;FSLW90;2019_Dec_03_1600;iat_vr;59.867692400306325;
4;AUSGEZEICHNET;positiv;p;1;2;22;5;p;1;0.7732542000012472;002;FSLW90;2019_Dec_03_1600;iat_vr;59.867692400306325;
4;KLEIDER;Gemacht;p;1;3;23;17;p;1;1.0985055999990436;002;FSLW90;2019_Dec_03_1600;iat_vr;59.867692400306325;
4;BLUME;Natur;q;1;4;24;12;q;1;0.8144510000020091;002;FSLW90;2019_Dec_03_1600;iat_vr;59.867692400306325;
4;SCHLIMM;negativ;q;1;5;25;0;q;1;0.7132295000010345;002;FSLW90;2019_Dec_03_1600;iat_vr;59.867692400306325;
4;WASSER;Natur;q;1;6;26;11;q;1;1.4150215999979991;002;FSLW90;2019_Dec_03_1600;iat_vr;59.867692400306325;
4;TIER;Natur;q;1;7;27;13;q;1;2.682433399997535;002;FSLW90;2019_Dec_03_1600;iat_vr;59.867692400306325;
4;EINWANDFREI;positiv;p;1;8;28;6;p;1;1.3281635000021197;002;FSLW90;2019_Dec_03_1600;iat_vr;59.867692400306325;
4;HERVORRAGEND;positiv;p;1;9;29;7;p;1;0.5457996999975876;002;FSLW90;2019_Dec_03_1600;iat_vr;59.867692400306325;
4;STADT;Gemacht;p;1;10;30;16;p;1;0.7300200999998196;002;FSLW90;2019_Dec_03_1600;iat_vr;59.867692400306325;
4;BAUM;Natur;q;1;11;31;10;q;1;0.6990914999987581;002;FSLW90;2019_Dec_03_1600;iat_vr;59.867692400306325;
4;SCHWACH;negativ;q;1;12;32;4;q;1;0.8101271000014094;002;FSLW90;2019_Dec_03_1600;iat_vr;59.867692400306325;
4;COMPUTER;Gemacht;p;1;13;33;18;p;1;1.3805276999992202;002;FSLW90;2019_Dec_03_1600;iat_vr;59.867692400306325;
4;POSITIV;positiv;p;1;14;34;8;p;1;1.0142278999992413;002;FSLW90;2019_Dec_03_1600;iat_vr;59.867692400306325;
4;LAMPE;Gemacht;p;1;15;35;19;p;1;0.6668957000001683;002;FSLW90;2019_Dec_03_1600;iat_vr;59.867692400306325;
4;GEBÄUDE;Gemacht;p;1;16;36;15;p;1;0.7308927999984007;002;FSLW90;2019_Dec_03_1600;iat_vr;59.867692400306325;
4;GUT;positiv;p;1;17;37;9;p;1;0.8486765999987256;002;FSLW90;2019_Dec_03_1600;iat_vr;59.867692400306325;
4;SCHÄDLICH;negativ;q;1;18;38;3;q;1;1.0128598999981477;002;FSLW90;2019_Dec_03_1600;iat_vr;59.867692400306325;
4;NEGATIV;negativ;q;1;19;39;2;q;1;0.6134884000020975;002;FSLW90;2019_Dec_03_1600;iat_vr;59.867692400306325;
;;;;;;;;;;;002;FSLW90;2019_Dec_03_1600;iat_vr;59.867692400306325;
5;TIER;Natur;p;0;0;0;3;p;1;1.4156626000003598;002;FSLW90;2019_Dec_03_1600;iat_vr;59.867692400306325;
5;WASSER;Natur;p;0;1;1;1;p;1;0.6149433999999019;002;FSLW90;2019_Dec_03_1600;iat_vr;59.867692400306325;
5;KLEIDER;Gemacht;q;0;2;2;7;q;1;0.8319129000010435;002;FSLW90;2019_Dec_03_1600;iat_vr;59.867692400306325;
5;BLUME;Natur;p;0;3;3;2;p;1;0.7812776999999187;002;FSLW90;2019_Dec_03_1600;iat_vr;59.867692400306325;
5;STADT;Gemacht;q;0;4;4;6;q;1;1.1981027000001632;002;FSLW90;2019_Dec_03_1600;iat_vr;59.867692400306325;
5;COMPUTER;Gemacht;q;0;5;5;8;q;1;0.6118464000028325;002;FSLW90;2019_Dec_03_1600;iat_vr;59.867692400306325;
5;LAMPE;Gemacht;q;0;6;6;9;q;1;0.5824209000020346;002;FSLW90;2019_Dec_03_1600;iat_vr;59.867692400306325;
5;STEIN;Natur;p;0;7;7;4;p;1;0.7838633999999729;002;FSLW90;2019_Dec_03_1600;iat_vr;59.867692400306325;
5;GEBÄUDE;Gemacht;q;0;8;8;5;q;1;0.8976409999995667;002;FSLW90;2019_Dec_03_1600;iat_vr;59.867692400306325;
5;BAUM;Natur;p;0;9;9;0;p;1;0.7152145000000019;002;FSLW90;2019_Dec_03_1600;iat_vr;59.867692400306325;
5;BLUME;Natur;p;1;0;10;2;p;1;0.7981638999990537;002;FSLW90;2019_Dec_03_1600;iat_vr;59.867692400306325;
5;STADT;Gemacht;q;1;1;11;6;q;1;0.7310556999982509;002;FSLW90;2019_Dec_03_1600;iat_vr;59.867692400306325;
5;STEIN;Natur;p;1;2;12;4;p;1;0.9813294999985374;002;FSLW90;2019_Dec_03_1600;iat_vr;59.867692400306325;
5;KLEIDER;Gemacht;q;1;3;13;7;q;1;1.029641500001162;002;FSLW90;2019_Dec_03_1600;iat_vr;59.867692400306325;
5;BAUM;Natur;p;1;4;14;0;p;1;1.0657920000012382;002;FSLW90;2019_Dec_03_1600;iat_vr;59.867692400306325;
5;WASSER;Natur;p;1;5;15;1;p;1;0.6981347000000824;002;FSLW90;2019_Dec_03_1600;iat_vr;59.867692400306325;
5;COMPUTER;Gemacht;q;1;6;16;8;q;1;0.8152157000004081;002;FSLW90;2019_Dec_03_1600;iat_vr;59.867692400306325;
5;LAMPE;Gemacht;q;1;7;17;9;q;1;0.7813218000010238;002;FSLW90;2019_Dec_03_1600;iat_vr;59.867692400306325;
5;TIER;Natur;p;1;8;18;3;p;1;0.7465855999980704;002;FSLW90;2019_Dec_03_1600;iat_vr;59.867692400306325;
5;GEBÄUDE;Gemacht;q;1;9;19;5;q;1;0.9299782999987656;002;FSLW90;2019_Dec_03_1600;iat_vr;59.867692400306325;
;;;;;;;;;;;002;FSLW90;2019_Dec_03_1600;iat_vr;59.867692400306325;
6;STADT;Gemacht;q;0;0;0;6;q;1;15.63760639999964;002;FSLW90;2019_Dec_03_1600;iat_vr;59.867692400306325;
6;SCHÄDLICH;negativ;q;0;1;1;13;q;1;1.2808002999991004;002;FSLW90;2019_Dec_03_1600;iat_vr;59.867692400306325;
6;SCHWACH;negativ;q;0;2;2;14;q;1;0.6148806999990484;002;FSLW90;2019_Dec_03_1600;iat_vr;59.867692400306325;
6;STEIN;Natur;p;0;3;3;4;p;1;1.1813402000007045;002;FSLW90;2019_Dec_03_1600;iat_vr;59.867692400306325;
6;KLEIDER;Gemacht;q;0;4;4;7;q;1;1.6465887999984261;002;FSLW90;2019_Dec_03_1600;iat_vr;59.867692400306325;
6;BAUM;Natur;p;0;5;5;0;p;1;1.531528999999864;002;FSLW90;2019_Dec_03_1600;iat_vr;59.867692400306325;
6;EINWANDFREI;positiv;p;0;6;6;16;p;1;1.094405600000755;002;FSLW90;2019_Dec_03_1600;iat_vr;59.867692400306325;
6;POSITIV;positiv;p;0;7;7;18;p;1;0.6819017999987409;002;FSLW90;2019_Dec_03_1600;iat_vr;59.867692400306325;
6;BLUME;Natur;p;0;8;8;2;p;1;0.9808439999978873;002;FSLW90;2019_Dec_03_1600;iat_vr;59.867692400306325;
6;SCHLECHT;negativ;q;0;9;9;11;q;1;3.4308199000006425;002;FSLW90;2019_Dec_03_1600;iat_vr;59.867692400306325;
6;AUSGEZEICHNET;positiv;p;0;10;10;15;p;1;0.7718807000019297;002;FSLW90;2019_Dec_03_1600;iat_vr;59.867692400306325;
6;SCHLIMM;negativ;q;0;11;11;10;q;1;0.9970395999989705;002;FSLW90;2019_Dec_03_1600;iat_vr;59.867692400306325;
6;TIER;Natur;p;0;12;12;3;p;1;1.0808273000002373;002;FSLW90;2019_Dec_03_1600;iat_vr;59.867692400306325;
6;HERVORRAGEND;positiv;p;0;13;13;17;p;1;0.8502214999971329;002;FSLW90;2019_Dec_03_1600;iat_vr;59.867692400306325;
6;LAMPE;Gemacht;q;0;14;14;9;q;1;0.9136165000018082;002;FSLW90;2019_Dec_03_1600;iat_vr;59.867692400306325;
6;GUT;positiv;p;0;15;15;19;p;1;1.1346666999997979;002;FSLW90;2019_Dec_03_1600;iat_vr;59.867692400306325;
6;NEGATIV;negativ;q;0;16;16;12;q;1;1.2979727999991155;002;FSLW90;2019_Dec_03_1600;iat_vr;59.867692400306325;
6;COMPUTER;Gemacht;q;0;17;17;8;q;1;2.8601262000011047;002;FSLW90;2019_Dec_03_1600;iat_vr;59.867692400306325;
6;WASSER;Natur;p;0;18;18;1;p;1;4.014373899997736;002;FSLW90;2019_Dec_03_1600;iat_vr;59.867692400306325;
6;GEBÄUDE;Gemacht;q;0;19;19;5;q;1;0.9620631999969191;002;FSLW90;2019_Dec_03_1600;iat_vr;59.867692400306325;
;;;;;;;;;;;002;FSLW90;2019_Dec_03_1600;iat_vr;59.867692400306325;
7;BLUME;Natur;p;0;0;0;2;p;1;1.0430973999973503;002;FSLW90;2019_Dec_03_1600;iat_vr;59.867692400306325;
7;GEBÄUDE;Gemacht;q;0;1;1;5;q;1;0.8478746000000683;002;FSLW90;2019_Dec_03_1600;iat_vr;59.867692400306325;
7;TIER;Natur;p;0;2;2;3;p;1;0.9641238000003796;002;FSLW90;2019_Dec_03_1600;iat_vr;59.867692400306325;
7;SCHLECHT;negativ;q;0;3;3;11;q;1;0.9966077999997651;002;FSLW90;2019_Dec_03_1600;iat_vr;59.867692400306325;
7;NEGATIV;negativ;q;0;4;4;12;q;1;0.9276178000000073;002;FSLW90;2019_Dec_03_1600;iat_vr;59.867692400306325;
7;KLEIDER;Gemacht;q;0;5;5;7;q;1;1.144932200000767;002;FSLW90;2019_Dec_03_1600;iat_vr;59.867692400306325;
7;AUSGEZEICHNET;positiv;p;0;6;6;15;p;1;0.7287966000003507;002;FSLW90;2019_Dec_03_1600;iat_vr;59.867692400306325;
7;SCHÄDLICH;negativ;q;0;7;7;13;q;1;1.14689929999804;002;FSLW90;2019_Dec_03_1600;iat_vr;59.867692400306325;
7;HERVORRAGEND;positiv;p;0;8;8;17;p;1;0.8785772000010184;002;FSLW90;2019_Dec_03_1600;iat_vr;59.867692400306325;
7;LAMPE;Gemacht;q;0;9;9;9;q;1;0.946353999999701;002;FSLW90;2019_Dec_03_1600;iat_vr;59.867692400306325;
7;STEIN;Natur;p;0;10;10;4;p;1;0.7992541000021447;002;FSLW90;2019_Dec_03_1600;iat_vr;59.867692400306325;
7;STADT;Gemacht;q;0;11;11;6;q;1;0.9152740999998059;002;FSLW90;2019_Dec_03_1600;iat_vr;59.867692400306325;
7;WASSER;Natur;p;0;12;12;1;q;0;1.0621240000000398;002;FSLW90;2019_Dec_03_1600;iat_vr;59.867692400306325;
7;SCHLIMM;negativ;q;0;13;13;10;q;1;6.413782600000559;002;FSLW90;2019_Dec_03_1600;iat_vr;59.867692400306325;
7;SCHWACH;negativ;q;0;14;14;14;q;1;0.5975569000001997;002;FSLW90;2019_Dec_03_1600;iat_vr;59.867692400306325;
7;BAUM;Natur;p;0;15;15;0;p;1;2.802322699997603;002;FSLW90;2019_Dec_03_1600;iat_vr;59.867692400306325;
7;POSITIV;positiv;p;0;16;16;18;p;1;0.6287790999995195;002;FSLW90;2019_Dec_03_1600;iat_vr;59.867692400306325;
7;EINWANDFREI;positiv;p;0;17;17;16;p;1;1.3453362000000197;002;FSLW90;2019_Dec_03_1600;iat_vr;59.867692400306325;
7;GUT;positiv;p;0;18;18;19;p;1;0.7141761999992013;002;FSLW90;2019_Dec_03_1600;iat_vr;59.867692400306325;
7;COMPUTER;Gemacht;q;0;19;19;8;q;1;0.9315476000010676;002;FSLW90;2019_Dec_03_1600;iat_vr;59.867692400306325;
7;SCHLECHT;negativ;q;1;0;20;11;q;1;0.9291036000031454;002;FSLW90;2019_Dec_03_1600;iat_vr;59.867692400306325;
7;GUT;positiv;p;1;1;21;19;p;1;1.3994010999995226;002;FSLW90;2019_Dec_03_1600;iat_vr;59.867692400306325;
7;SCHWACH;negativ;q;1;2;22;14;q;1;1.2365319000018644;002;FSLW90;2019_Dec_03_1600;iat_vr;59.867692400306325;
7;WASSER;Natur;p;1;3;23;1;p;1;1.1306613000015204;002;FSLW90;2019_Dec_03_1600;iat_vr;59.867692400306325;
7;HERVORRAGEND;positiv;p;1;4;24;17;p;1;0.8286475999993854;002;FSLW90;2019_Dec_03_1600;iat_vr;59.867692400306325;
7;SCHÄDLICH;negativ;q;1;5;25;13;q;1;1.395750700001372;002;FSLW90;2019_Dec_03_1600;iat_vr;59.867692400306325;
7;POSITIV;positiv;p;1;6;26;18;p;1;1.3656133999975282;002;FSLW90;2019_Dec_03_1600;iat_vr;59.867692400306325;
7;SCHLIMM;negativ;q;1;7;27;10;q;1;1.115248199999769;002;FSLW90;2019_Dec_03_1600;iat_vr;59.867692400306325;
7;GEBÄUDE;Gemacht;q;1;8;28;5;q;1;0.9302143999993859;002;FSLW90;2019_Dec_03_1600;iat_vr;59.867692400306325;
7;BAUM;Natur;p;1;9;29;0;p;1;0.748353800001496;002;FSLW90;2019_Dec_03_1600;iat_vr;59.867692400306325;
7;LAMPE;Gemacht;q;1;10;30;9;q;1;0.718767200000002;002;FSLW90;2019_Dec_03_1600;iat_vr;59.867692400306325;
7;KLEIDER;Gemacht;q;1;11;31;7;q;1;0.8461344999996072;002;FSLW90;2019_Dec_03_1600;iat_vr;59.867692400306325;
7;BLUME;Natur;p;1;12;32;2;p;1;1.1636001999977452;002;FSLW90;2019_Dec_03_1600;iat_vr;59.867692400306325;
7;EINWANDFREI;positiv;p;1;13;33;16;p;1;0.7436718000026303;002;FSLW90;2019_Dec_03_1600;iat_vr;59.867692400306325;
7;COMPUTER;Gemacht;q;1;14;34;8;q;1;0.8145459000006667;002;FSLW90;2019_Dec_03_1600;iat_vr;59.867692400306325;
7;STADT;Gemacht;q;1;15;35;6;q;1;0.830813799999305;002;FSLW90;2019_Dec_03_1600;iat_vr;59.867692400306325;
7;AUSGEZEICHNET;positiv;p;1;16;36;15;p;1;1.6597770000007586;002;FSLW90;2019_Dec_03_1600;iat_vr;59.867692400306325;
7;NEGATIV;negativ;q;1;17;37;12;q;1;0.847967100002279;002;FSLW90;2019_Dec_03_1600;iat_vr;59.867692400306325;
7;STEIN;Natur;p;1;18;38;4;p;1;0.9496522999979788;002;FSLW90;2019_Dec_03_1600;iat_vr;59.867692400306325;
7;TIER;Natur;p;1;19;39;3;p;1;0.6818880999999237;002;FSLW90;2019_Dec_03_1600;iat_vr;59.867692400306325;
;;;;;;;;;;;002;FSLW90;2019_Dec_03_1600;iat_vr;59.867692400306325;
