Block;Word;Category;CorrResp;trials.thisRepN;trials.thisTrialN;trials.thisN;trials.thisIndex;key_resp_2.keys;key_resp_2.corr;key_resp_2.rt;session;participant;date;expName;frameRate;
1;STADT;Gemacht;p;0;0;0;6;q;0;1.466976700000032;001;FSNK87;2019_Dec_19_1100;iat_vr;60.060420783292;
1;STEIN;Natur;q;0;1;1;4;q;1;1.4581201999999962;001;FSNK87;2019_Dec_19_1100;iat_vr;60.060420783292;
1;LAMPE;Gemacht;p;0;2;2;9;p;1;1.2032221999999706;001;FSNK87;2019_Dec_19_1100;iat_vr;60.060420783292;
1;BAUM;Natur;q;0;3;3;0;q;1;0.8242662000000109;001;FSNK87;2019_Dec_19_1100;iat_vr;60.060420783292;
1;WASSER;Natur;q;0;4;4;1;q;1;1.1919419999999832;001;FSNK87;2019_Dec_19_1100;iat_vr;60.060420783292;
1;TIER;Natur;q;0;5;5;3;q;1;1.0151912999999695;001;FSNK87;2019_Dec_19_1100;iat_vr;60.060420783292;
1;GEBÄUDE;Gemacht;p;0;6;6;5;p;1;0.6880838000000153;001;FSNK87;2019_Dec_19_1100;iat_vr;60.060420783292;
1;COMPUTER;Gemacht;p;0;7;7;8;p;1;1.4755529000000251;001;FSNK87;2019_Dec_19_1100;iat_vr;60.060420783292;
1;BLUME;Natur;q;0;8;8;2;q;1;0.6821527000000174;001;FSNK87;2019_Dec_19_1100;iat_vr;60.060420783292;
1;KLEIDER;Gemacht;p;0;9;9;7;p;1;1.061934899999983;001;FSNK87;2019_Dec_19_1100;iat_vr;60.060420783292;
1;STEIN;Natur;q;1;0;10;4;q;1;0.748326899999995;001;FSNK87;2019_Dec_19_1100;iat_vr;60.060420783292;
1;LAMPE;Gemacht;p;1;1;11;9;q;0;0.864787500000034;001;FSNK87;2019_Dec_19_1100;iat_vr;60.060420783292;
1;KLEIDER;Gemacht;p;1;2;12;7;p;1;0.6637423999999896;001;FSNK87;2019_Dec_19_1100;iat_vr;60.060420783292;
1;GEBÄUDE;Gemacht;p;1;3;13;5;p;1;0.6966481000000044;001;FSNK87;2019_Dec_19_1100;iat_vr;60.060420783292;
1;BLUME;Natur;q;1;4;14;2;q;1;0.564680199999998;001;FSNK87;2019_Dec_19_1100;iat_vr;60.060420783292;
1;TIER;Natur;q;1;5;15;3;p;0;0.6188356000000113;001;FSNK87;2019_Dec_19_1100;iat_vr;60.060420783292;
1;COMPUTER;Gemacht;p;1;6;16;8;p;1;0.7761805999999751;001;FSNK87;2019_Dec_19_1100;iat_vr;60.060420783292;
1;WASSER;Natur;q;1;7;17;1;q;1;0.8802726000000121;001;FSNK87;2019_Dec_19_1100;iat_vr;60.060420783292;
1;BAUM;Natur;q;1;8;18;0;q;1;0.6323326999999495;001;FSNK87;2019_Dec_19_1100;iat_vr;60.060420783292;
1;STADT;Gemacht;p;1;9;19;6;p;1;0.5636314999999854;001;FSNK87;2019_Dec_19_1100;iat_vr;60.060420783292;
;;;;;;;;;;;001;FSNK87;2019_Dec_19_1100;iat_vr;60.060420783292;
2;POSITIV;positiv;p;0;0;0;8;p;1;1.1779290999999716;001;FSNK87;2019_Dec_19_1100;iat_vr;60.060420783292;
2;NEGATIV;negativ;q;0;1;1;2;q;1;0.4334210000000098;001;FSNK87;2019_Dec_19_1100;iat_vr;60.060420783292;
2;AUSGEZEICHNET;positiv;p;0;2;2;5;p;1;0.7390844000000243;001;FSNK87;2019_Dec_19_1100;iat_vr;60.060420783292;
2;SCHLECHT;negativ;q;0;3;3;1;q;1;0.6690002999999933;001;FSNK87;2019_Dec_19_1100;iat_vr;60.060420783292;
2;SCHÄDLICH;negativ;q;0;4;4;3;q;1;0.945141700000022;001;FSNK87;2019_Dec_19_1100;iat_vr;60.060420783292;
2;SCHWACH;negativ;q;0;5;5;4;q;1;0.7297922999999855;001;FSNK87;2019_Dec_19_1100;iat_vr;60.060420783292;
2;EINWANDFREI;positiv;p;0;6;6;6;p;1;0.7780391999999665;001;FSNK87;2019_Dec_19_1100;iat_vr;60.060420783292;
2;SCHLIMM;negativ;q;0;7;7;0;q;1;0.712180500000045;001;FSNK87;2019_Dec_19_1100;iat_vr;60.060420783292;
2;HERVORRAGEND;positiv;p;0;8;8;7;p;1;0.8466295999999716;001;FSNK87;2019_Dec_19_1100;iat_vr;60.060420783292;
2;GUT;positiv;p;0;9;9;9;p;1;0.5862301999999886;001;FSNK87;2019_Dec_19_1100;iat_vr;60.060420783292;
2;NEGATIV;negativ;q;1;0;10;2;q;1;0.6581676999999786;001;FSNK87;2019_Dec_19_1100;iat_vr;60.060420783292;
2;AUSGEZEICHNET;positiv;p;1;1;11;5;q;0;0.9287087999999812;001;FSNK87;2019_Dec_19_1100;iat_vr;60.060420783292;
2;EINWANDFREI;positiv;p;1;2;12;6;p;1;0.9403601999999864;001;FSNK87;2019_Dec_19_1100;iat_vr;60.060420783292;
2;SCHLIMM;negativ;q;1;3;13;0;q;1;0.6671774999999798;001;FSNK87;2019_Dec_19_1100;iat_vr;60.060420783292;
2;HERVORRAGEND;positiv;p;1;4;14;7;p;1;0.6496535999999651;001;FSNK87;2019_Dec_19_1100;iat_vr;60.060420783292;
2;SCHÄDLICH;negativ;q;1;5;15;3;q;1;0.667029599999978;001;FSNK87;2019_Dec_19_1100;iat_vr;60.060420783292;
2;POSITIV;positiv;p;1;6;16;8;p;1;0.6337528999999904;001;FSNK87;2019_Dec_19_1100;iat_vr;60.060420783292;
2;GUT;positiv;p;1;7;17;9;p;1;0.68398940000003;001;FSNK87;2019_Dec_19_1100;iat_vr;60.060420783292;
2;SCHLECHT;negativ;q;1;8;18;1;q;1;0.7632784999999558;001;FSNK87;2019_Dec_19_1100;iat_vr;60.060420783292;
2;SCHWACH;negativ;q;1;9;19;4;q;1;0.8980596000000105;001;FSNK87;2019_Dec_19_1100;iat_vr;60.060420783292;
;;;;;;;;;;;001;FSNK87;2019_Dec_19_1100;iat_vr;60.060420783292;
3;AUSGEZEICHNET;positiv;p;0;0;0;5;p;1;1.0495814000000223;001;FSNK87;2019_Dec_19_1100;iat_vr;60.060420783292;
3;STADT;Gemacht;p;0;1;1;16;p;1;1.0808695000000057;001;FSNK87;2019_Dec_19_1100;iat_vr;60.060420783292;
3;TIER;Natur;q;0;2;2;13;q;1;1.0013404000000037;001;FSNK87;2019_Dec_19_1100;iat_vr;60.060420783292;
3;GEBÄUDE;Gemacht;p;0;3;3;15;p;1;1.328758300000004;001;FSNK87;2019_Dec_19_1100;iat_vr;60.060420783292;
3;BAUM;Natur;q;0;4;4;10;p;0;0.5474135999999703;001;FSNK87;2019_Dec_19_1100;iat_vr;60.060420783292;
3;COMPUTER;Gemacht;p;0;5;5;18;p;1;0.9627470000000358;001;FSNK87;2019_Dec_19_1100;iat_vr;60.060420783292;
3;NEGATIV;negativ;q;0;6;6;2;q;1;0.868572400000005;001;FSNK87;2019_Dec_19_1100;iat_vr;60.060420783292;
3;SCHLECHT;negativ;q;0;7;7;1;q;1;0.9985167000000388;001;FSNK87;2019_Dec_19_1100;iat_vr;60.060420783292;
3;SCHLIMM;negativ;q;0;8;8;0;q;1;0.6649555000000191;001;FSNK87;2019_Dec_19_1100;iat_vr;60.060420783292;
3;SCHÄDLICH;negativ;q;0;9;9;3;q;1;0.794869800000015;001;FSNK87;2019_Dec_19_1100;iat_vr;60.060420783292;
3;LAMPE;Gemacht;p;0;10;10;19;p;1;0.8987485999999762;001;FSNK87;2019_Dec_19_1100;iat_vr;60.060420783292;
3;GUT;positiv;p;0;11;11;9;p;1;0.8650291999999808;001;FSNK87;2019_Dec_19_1100;iat_vr;60.060420783292;
3;STEIN;Natur;q;0;12;12;14;q;1;0.9147499000000039;001;FSNK87;2019_Dec_19_1100;iat_vr;60.060420783292;
3;SCHWACH;negativ;q;0;13;13;4;q;1;1.3471867999999745;001;FSNK87;2019_Dec_19_1100;iat_vr;60.060420783292;
3;EINWANDFREI;positiv;p;0;14;14;6;p;1;1.3274349000000143;001;FSNK87;2019_Dec_19_1100;iat_vr;60.060420783292;
3;BLUME;Natur;q;0;15;15;12;q;1;1.2022024000000329;001;FSNK87;2019_Dec_19_1100;iat_vr;60.060420783292;
3;WASSER;Natur;q;0;16;16;11;q;1;0.6470282999999881;001;FSNK87;2019_Dec_19_1100;iat_vr;60.060420783292;
3;HERVORRAGEND;positiv;p;0;17;17;7;p;1;0.8030655000000024;001;FSNK87;2019_Dec_19_1100;iat_vr;60.060420783292;
3;POSITIV;positiv;p;0;18;18;8;p;1;0.585548000000017;001;FSNK87;2019_Dec_19_1100;iat_vr;60.060420783292;
3;KLEIDER;Gemacht;p;0;19;19;17;q;0;0.8815872999999783;001;FSNK87;2019_Dec_19_1100;iat_vr;60.060420783292;
;;;;;;;;;;;001;FSNK87;2019_Dec_19_1100;iat_vr;60.060420783292;
4;SCHWACH;negativ;q;0;0;0;4;q;1;1.0835976000000187;001;FSNK87;2019_Dec_19_1100;iat_vr;60.060420783292;
4;EINWANDFREI;positiv;p;0;1;1;6;p;1;0.8501420999999709;001;FSNK87;2019_Dec_19_1100;iat_vr;60.060420783292;
4;NEGATIV;negativ;q;0;2;2;2;q;1;1.0000772999999867;001;FSNK87;2019_Dec_19_1100;iat_vr;60.060420783292;
4;HERVORRAGEND;positiv;p;0;3;3;7;p;1;0.8190675999999826;001;FSNK87;2019_Dec_19_1100;iat_vr;60.060420783292;
4;COMPUTER;Gemacht;p;0;4;4;18;p;1;0.7025133999999866;001;FSNK87;2019_Dec_19_1100;iat_vr;60.060420783292;
4;SCHLIMM;negativ;q;0;5;5;0;p;0;0.8301248000000214;001;FSNK87;2019_Dec_19_1100;iat_vr;60.060420783292;
4;TIER;Natur;q;0;6;6;13;p;0;0.7360960999999975;001;FSNK87;2019_Dec_19_1100;iat_vr;60.060420783292;
4;SCHLECHT;negativ;q;0;7;7;1;q;1;0.98382509999999;001;FSNK87;2019_Dec_19_1100;iat_vr;60.060420783292;
4;POSITIV;positiv;p;0;8;8;8;p;1;0.7306422000000339;001;FSNK87;2019_Dec_19_1100;iat_vr;60.060420783292;
4;SCHÄDLICH;negativ;q;0;9;9;3;q;1;0.8121507999999835;001;FSNK87;2019_Dec_19_1100;iat_vr;60.060420783292;
4;BLUME;Natur;q;0;10;10;12;p;0;0.7128850000000284;001;FSNK87;2019_Dec_19_1100;iat_vr;60.060420783292;
4;BAUM;Natur;q;0;11;11;10;q;1;1.0156895999999733;001;FSNK87;2019_Dec_19_1100;iat_vr;60.060420783292;
4;LAMPE;Gemacht;p;0;12;12;19;p;1;0.901194299999986;001;FSNK87;2019_Dec_19_1100;iat_vr;60.060420783292;
4;GEBÄUDE;Gemacht;p;0;13;13;15;p;1;1.0344736000000125;001;FSNK87;2019_Dec_19_1100;iat_vr;60.060420783292;
4;STADT;Gemacht;p;0;14;14;16;p;1;0.8009867000000099;001;FSNK87;2019_Dec_19_1100;iat_vr;60.060420783292;
4;GUT;positiv;p;0;15;15;9;p;1;1.0831093000000465;001;FSNK87;2019_Dec_19_1100;iat_vr;60.060420783292;
4;KLEIDER;Gemacht;p;0;16;16;17;p;1;1.6842644999999834;001;FSNK87;2019_Dec_19_1100;iat_vr;60.060420783292;
4;STEIN;Natur;q;0;17;17;14;q;1;0.8151914000000033;001;FSNK87;2019_Dec_19_1100;iat_vr;60.060420783292;
4;AUSGEZEICHNET;positiv;p;0;18;18;5;q;0;0.7092824000000064;001;FSNK87;2019_Dec_19_1100;iat_vr;60.060420783292;
4;WASSER;Natur;q;0;19;19;11;p;0;0.2339220999999725;001;FSNK87;2019_Dec_19_1100;iat_vr;60.060420783292;
4;SCHLECHT;negativ;q;1;0;20;1;q;1;1.1281852000000185;001;FSNK87;2019_Dec_19_1100;iat_vr;60.060420783292;
4;EINWANDFREI;positiv;p;1;1;21;6;p;1;0.7297408999999675;001;FSNK87;2019_Dec_19_1100;iat_vr;60.060420783292;
4;LAMPE;Gemacht;p;1;2;22;19;q;0;0.8152422000000001;001;FSNK87;2019_Dec_19_1100;iat_vr;60.060420783292;
4;KLEIDER;Gemacht;p;1;3;23;17;q;0;1.910608599999989;001;FSNK87;2019_Dec_19_1100;iat_vr;60.060420783292;
4;HERVORRAGEND;positiv;p;1;4;24;7;p;1;1.5420002000000181;001;FSNK87;2019_Dec_19_1100;iat_vr;60.060420783292;
4;STEIN;Natur;q;1;5;25;14;p;0;1.1148057999999992;001;FSNK87;2019_Dec_19_1100;iat_vr;60.060420783292;
4;STADT;Gemacht;p;1;6;26;16;q;0;0.9332652000000508;001;FSNK87;2019_Dec_19_1100;iat_vr;60.060420783292;
4;COMPUTER;Gemacht;p;1;7;27;18;p;1;1.8183468999999945;001;FSNK87;2019_Dec_19_1100;iat_vr;60.060420783292;
4;SCHÄDLICH;negativ;q;1;8;28;3;q;1;0.9140578000000232;001;FSNK87;2019_Dec_19_1100;iat_vr;60.060420783292;
4;NEGATIV;negativ;q;1;9;29;2;q;1;0.8032612000000086;001;FSNK87;2019_Dec_19_1100;iat_vr;60.060420783292;
4;SCHLIMM;negativ;q;1;10;30;0;q;1;0.7806193000000121;001;FSNK87;2019_Dec_19_1100;iat_vr;60.060420783292;
4;TIER;Natur;q;1;11;31;13;p;0;0.8990284000000202;001;FSNK87;2019_Dec_19_1100;iat_vr;60.060420783292;
4;BLUME;Natur;q;1;12;32;12;q;1;1.166423400000042;001;FSNK87;2019_Dec_19_1100;iat_vr;60.060420783292;
4;POSITIV;positiv;p;1;13;33;8;p;1;0.8507051999999931;001;FSNK87;2019_Dec_19_1100;iat_vr;60.060420783292;
4;AUSGEZEICHNET;positiv;p;1;14;34;5;p;1;0.7616843999999787;001;FSNK87;2019_Dec_19_1100;iat_vr;60.060420783292;
4;GUT;positiv;p;1;15;35;9;p;1;1.0838860000000068;001;FSNK87;2019_Dec_19_1100;iat_vr;60.060420783292;
4;SCHWACH;negativ;q;1;16;36;4;q;1;1.117606999999964;001;FSNK87;2019_Dec_19_1100;iat_vr;60.060420783292;
4;GEBÄUDE;Gemacht;p;1;17;37;15;p;1;1.1838056999999935;001;FSNK87;2019_Dec_19_1100;iat_vr;60.060420783292;
4;BAUM;Natur;q;1;18;38;10;p;0;2.0503910000000474;001;FSNK87;2019_Dec_19_1100;iat_vr;60.060420783292;
4;WASSER;Natur;q;1;19;39;11;p;0;1.7334422999999788;001;FSNK87;2019_Dec_19_1100;iat_vr;60.060420783292;
;;;;;;;;;;;001;FSNK87;2019_Dec_19_1100;iat_vr;60.060420783292;
5;KLEIDER;Gemacht;q;0;0;0;7;p;0;0.7463548000000628;001;FSNK87;2019_Dec_19_1100;iat_vr;60.060420783292;
5;BAUM;Natur;p;0;1;1;0;p;1;1.1340139999999792;001;FSNK87;2019_Dec_19_1100;iat_vr;60.060420783292;
5;WASSER;Natur;p;0;2;2;1;p;1;0.5672823999999537;001;FSNK87;2019_Dec_19_1100;iat_vr;60.060420783292;
5;COMPUTER;Gemacht;q;0;3;3;8;q;1;0.6171898000000056;001;FSNK87;2019_Dec_19_1100;iat_vr;60.060420783292;
5;STEIN;Natur;p;0;4;4;4;p;1;0.6503119999999853;001;FSNK87;2019_Dec_19_1100;iat_vr;60.060420783292;
5;STADT;Gemacht;q;0;5;5;6;q;1;0.6000847000000249;001;FSNK87;2019_Dec_19_1100;iat_vr;60.060420783292;
5;LAMPE;Gemacht;q;0;6;6;9;q;1;0.5837919000000511;001;FSNK87;2019_Dec_19_1100;iat_vr;60.060420783292;
5;BLUME;Natur;p;0;7;7;2;p;1;1.4501971999999341;001;FSNK87;2019_Dec_19_1100;iat_vr;60.060420783292;
5;GEBÄUDE;Gemacht;q;0;8;8;5;q;1;0.6837780000000748;001;FSNK87;2019_Dec_19_1100;iat_vr;60.060420783292;
5;TIER;Natur;p;0;9;9;3;p;1;0.7835645000000113;001;FSNK87;2019_Dec_19_1100;iat_vr;60.060420783292;
5;GEBÄUDE;Gemacht;q;1;0;10;5;q;1;0.6670262000000093;001;FSNK87;2019_Dec_19_1100;iat_vr;60.060420783292;
5;WASSER;Natur;p;1;1;11;1;p;1;0.6002882000000227;001;FSNK87;2019_Dec_19_1100;iat_vr;60.060420783292;
5;LAMPE;Gemacht;q;1;2;12;9;q;1;0.8499401999999918;001;FSNK87;2019_Dec_19_1100;iat_vr;60.060420783292;
5;BAUM;Natur;p;1;3;13;0;p;1;0.5189735000000155;001;FSNK87;2019_Dec_19_1100;iat_vr;60.060420783292;
5;TIER;Natur;p;1;4;14;3;q;0;0.4005705999999236;001;FSNK87;2019_Dec_19_1100;iat_vr;60.060420783292;
5;KLEIDER;Gemacht;q;1;5;15;7;p;0;0.61895370000002;001;FSNK87;2019_Dec_19_1100;iat_vr;60.060420783292;
5;STADT;Gemacht;q;1;6;16;6;q;1;1.4003774999999905;001;FSNK87;2019_Dec_19_1100;iat_vr;60.060420783292;
5;STEIN;Natur;p;1;7;17;4;p;1;0.5834496999999601;001;FSNK87;2019_Dec_19_1100;iat_vr;60.060420783292;
5;BLUME;Natur;p;1;8;18;2;p;1;0.5335763000000497;001;FSNK87;2019_Dec_19_1100;iat_vr;60.060420783292;
5;COMPUTER;Gemacht;q;1;9;19;8;q;1;0.8933018999999831;001;FSNK87;2019_Dec_19_1100;iat_vr;60.060420783292;
;;;;;;;;;;;001;FSNK87;2019_Dec_19_1100;iat_vr;60.060420783292;
6;STADT;Gemacht;q;0;0;0;6;q;1;0.912392299999965;001;FSNK87;2019_Dec_19_1100;iat_vr;60.060420783292;
6;KLEIDER;Gemacht;q;0;1;1;7;q;1;1.0664857000000438;001;FSNK87;2019_Dec_19_1100;iat_vr;60.060420783292;
6;SCHLIMM;negativ;q;0;2;2;10;q;1;0.6835016999999652;001;FSNK87;2019_Dec_19_1100;iat_vr;60.060420783292;
6;NEGATIV;negativ;q;0;3;3;12;q;1;0.6171676000000161;001;FSNK87;2019_Dec_19_1100;iat_vr;60.060420783292;
6;SCHÄDLICH;negativ;q;0;4;4;13;q;1;0.6673706000000266;001;FSNK87;2019_Dec_19_1100;iat_vr;60.060420783292;
6;TIER;Natur;p;0;5;5;3;q;0;1.2003204000000096;001;FSNK87;2019_Dec_19_1100;iat_vr;60.060420783292;
6;BLUME;Natur;p;0;6;6;2;p;1;0.6500784999999496;001;FSNK87;2019_Dec_19_1100;iat_vr;60.060420783292;
6;SCHWACH;negativ;q;0;7;7;14;q;1;0.6502457000000277;001;FSNK87;2019_Dec_19_1100;iat_vr;60.060420783292;
6;POSITIV;positiv;p;0;8;8;18;p;1;0.4694676999999956;001;FSNK87;2019_Dec_19_1100;iat_vr;60.060420783292;
6;HERVORRAGEND;positiv;p;0;9;9;17;p;1;0.7169613999999456;001;FSNK87;2019_Dec_19_1100;iat_vr;60.060420783292;
6;GUT;positiv;p;0;10;10;19;p;1;0.5007162000000562;001;FSNK87;2019_Dec_19_1100;iat_vr;60.060420783292;
6;SCHLECHT;negativ;q;0;11;11;11;q;1;0.6670338999999785;001;FSNK87;2019_Dec_19_1100;iat_vr;60.060420783292;
6;AUSGEZEICHNET;positiv;p;0;12;12;15;p;1;0.9644080999999005;001;FSNK87;2019_Dec_19_1100;iat_vr;60.060420783292;
6;LAMPE;Gemacht;q;0;13;13;9;q;1;0.6336646000000883;001;FSNK87;2019_Dec_19_1100;iat_vr;60.060420783292;
6;STEIN;Natur;p;0;14;14;4;p;1;0.7342021999999133;001;FSNK87;2019_Dec_19_1100;iat_vr;60.060420783292;
6;EINWANDFREI;positiv;p;0;15;15;16;q;0;0.7822466000000077;001;FSNK87;2019_Dec_19_1100;iat_vr;60.060420783292;
6;WASSER;Natur;p;0;16;16;1;p;1;0.7004451000000245;001;FSNK87;2019_Dec_19_1100;iat_vr;60.060420783292;
6;GEBÄUDE;Gemacht;q;0;17;17;5;q;1;0.7173181000000568;001;FSNK87;2019_Dec_19_1100;iat_vr;60.060420783292;
6;COMPUTER;Gemacht;q;0;18;18;8;q;1;0.7005838999999696;001;FSNK87;2019_Dec_19_1100;iat_vr;60.060420783292;
6;BAUM;Natur;p;0;19;19;0;p;1;0.6177572000000282;001;FSNK87;2019_Dec_19_1100;iat_vr;60.060420783292;
;;;;;;;;;;;001;FSNK87;2019_Dec_19_1100;iat_vr;60.060420783292;
7;BLUME;Natur;p;0;0;0;2;p;1;0.8463610000000017;001;FSNK87;2019_Dec_19_1100;iat_vr;60.060420783292;
7;KLEIDER;Gemacht;q;0;1;1;7;q;1;0.7500387000000046;001;FSNK87;2019_Dec_19_1100;iat_vr;60.060420783292;
7;GUT;positiv;p;0;2;2;19;p;1;0.5838615000000118;001;FSNK87;2019_Dec_19_1100;iat_vr;60.060420783292;
7;COMPUTER;Gemacht;q;0;3;3;8;q;1;0.7161048000000392;001;FSNK87;2019_Dec_19_1100;iat_vr;60.060420783292;
7;STADT;Gemacht;q;0;4;4;6;q;1;1.0507019000000355;001;FSNK87;2019_Dec_19_1100;iat_vr;60.060420783292;
7;SCHLIMM;negativ;q;0;5;5;10;q;1;0.8171803999999838;001;FSNK87;2019_Dec_19_1100;iat_vr;60.060420783292;
7;AUSGEZEICHNET;positiv;p;0;6;6;15;p;1;0.7007749999999078;001;FSNK87;2019_Dec_19_1100;iat_vr;60.060420783292;
7;EINWANDFREI;positiv;p;0;7;7;16;p;1;0.7324712999999292;001;FSNK87;2019_Dec_19_1100;iat_vr;60.060420783292;
7;SCHLECHT;negativ;q;0;8;8;11;q;1;0.6506906000000754;001;FSNK87;2019_Dec_19_1100;iat_vr;60.060420783292;
7;GEBÄUDE;Gemacht;q;0;9;9;5;q;1;0.7010955999999169;001;FSNK87;2019_Dec_19_1100;iat_vr;60.060420783292;
7;SCHWACH;negativ;q;0;10;10;14;q;1;0.7673479999999699;001;FSNK87;2019_Dec_19_1100;iat_vr;60.060420783292;
7;NEGATIV;negativ;q;0;11;11;12;q;1;0.6175482999999531;001;FSNK87;2019_Dec_19_1100;iat_vr;60.060420783292;
7;HERVORRAGEND;positiv;p;0;12;12;17;p;1;0.7175043999999389;001;FSNK87;2019_Dec_19_1100;iat_vr;60.060420783292;
7;WASSER;Natur;p;0;13;13;1;p;1;0.6004081000000951;001;FSNK87;2019_Dec_19_1100;iat_vr;60.060420783292;
7;TIER;Natur;p;0;14;14;3;p;1;0.6169231999999738;001;FSNK87;2019_Dec_19_1100;iat_vr;60.060420783292;
7;STEIN;Natur;p;0;15;15;4;p;1;0.5177340000000186;001;FSNK87;2019_Dec_19_1100;iat_vr;60.060420783292;
7;POSITIV;positiv;p;0;16;16;18;p;1;0.6642908000000034;001;FSNK87;2019_Dec_19_1100;iat_vr;60.060420783292;
7;SCHÄDLICH;negativ;q;0;17;17;13;q;1;1.1663045000000238;001;FSNK87;2019_Dec_19_1100;iat_vr;60.060420783292;
7;BAUM;Natur;p;0;18;18;0;p;1;0.6969141999999238;001;FSNK87;2019_Dec_19_1100;iat_vr;60.060420783292;
7;LAMPE;Gemacht;q;0;19;19;9;q;1;1.0329015999999456;001;FSNK87;2019_Dec_19_1100;iat_vr;60.060420783292;
7;SCHLECHT;negativ;q;1;0;20;11;q;1;0.8171661999999742;001;FSNK87;2019_Dec_19_1100;iat_vr;60.060420783292;
7;EINWANDFREI;positiv;p;1;1;21;16;p;1;0.8759973999999602;001;FSNK87;2019_Dec_19_1100;iat_vr;60.060420783292;
7;SCHLIMM;negativ;q;1;2;22;10;q;1;0.8845209999999497;001;FSNK87;2019_Dec_19_1100;iat_vr;60.060420783292;
7;POSITIV;positiv;p;1;3;23;18;p;1;0.6328199999999242;001;FSNK87;2019_Dec_19_1100;iat_vr;60.060420783292;
7;BLUME;Natur;p;1;4;24;2;p;1;0.6339897000000292;001;FSNK87;2019_Dec_19_1100;iat_vr;60.060420783292;
7;NEGATIV;negativ;q;1;5;25;12;q;1;0.6004915000000892;001;FSNK87;2019_Dec_19_1100;iat_vr;60.060420783292;
7;LAMPE;Gemacht;q;1;6;26;9;q;1;0.7989543999999569;001;FSNK87;2019_Dec_19_1100;iat_vr;60.060420783292;
7;SCHWACH;negativ;q;1;7;27;14;q;1;0.9670917999999347;001;FSNK87;2019_Dec_19_1100;iat_vr;60.060420783292;
7;AUSGEZEICHNET;positiv;p;1;8;28;15;p;1;0.6328496999999516;001;FSNK87;2019_Dec_19_1100;iat_vr;60.060420783292;
7;TIER;Natur;p;1;9;29;3;p;1;0.6502099000000499;001;FSNK87;2019_Dec_19_1100;iat_vr;60.060420783292;
7;STEIN;Natur;p;1;10;30;4;p;1;1.7504215999999815;001;FSNK87;2019_Dec_19_1100;iat_vr;60.060420783292;
7;BAUM;Natur;p;1;11;31;0;p;1;0.6167272000000139;001;FSNK87;2019_Dec_19_1100;iat_vr;60.060420783292;
7;GEBÄUDE;Gemacht;q;1;12;32;5;q;1;0.7005371999999852;001;FSNK87;2019_Dec_19_1100;iat_vr;60.060420783292;
7;WASSER;Natur;p;1;13;33;1;p;1;1.1169139999999516;001;FSNK87;2019_Dec_19_1100;iat_vr;60.060420783292;
7;SCHÄDLICH;negativ;q;1;14;34;13;q;1;0.6486943999999539;001;FSNK87;2019_Dec_19_1100;iat_vr;60.060420783292;
7;GUT;positiv;p;1;15;35;19;p;1;0.6504469999999856;001;FSNK87;2019_Dec_19_1100;iat_vr;60.060420783292;
7;KLEIDER;Gemacht;q;1;16;36;7;q;1;0.7511105999999472;001;FSNK87;2019_Dec_19_1100;iat_vr;60.060420783292;
7;STADT;Gemacht;q;1;17;37;6;p;0;0.778108399999951;001;FSNK87;2019_Dec_19_1100;iat_vr;60.060420783292;
7;COMPUTER;Gemacht;q;1;18;38;8;q;1;0.784035499999959;001;FSNK87;2019_Dec_19_1100;iat_vr;60.060420783292;
7;HERVORRAGEND;positiv;p;1;19;39;17;p;1;0.9504601999999522;001;FSNK87;2019_Dec_19_1100;iat_vr;60.060420783292;
;;;;;;;;;;;001;FSNK87;2019_Dec_19_1100;iat_vr;60.060420783292;
