Block;Word;Category;CorrResp;trials.thisRepN;trials.thisTrialN;trials.thisN;trials.thisIndex;key_resp_2.keys;key_resp_2.corr;key_resp_2.rt;session;participant;date;expName;frameRate;
1;STADT;Gemacht;p;0;0;0;6;p;1;1.6383112000003166;001;FSNS94;2019_Dec_03_1034;iat_vr;60.20795828790791;
1;LAMPE;Gemacht;p;0;1;1;9;p;1;1.1187521000001652;001;FSNS94;2019_Dec_03_1034;iat_vr;60.20795828790791;
1;STEIN;Natur;q;0;2;2;4;q;1;0.7341662999997425;001;FSNS94;2019_Dec_03_1034;iat_vr;60.20795828790791;
1;TIER;Natur;q;0;3;3;3;q;1;0.6955454999997528;001;FSNS94;2019_Dec_03_1034;iat_vr;60.20795828790791;
1;BAUM;Natur;q;0;4;4;0;q;1;0.5600689000002603;001;FSNS94;2019_Dec_03_1034;iat_vr;60.20795828790791;
1;KLEIDER;Gemacht;p;0;5;5;7;p;1;0.935517300000356;001;FSNS94;2019_Dec_03_1034;iat_vr;60.20795828790791;
1;WASSER;Natur;q;0;6;6;1;q;1;0.6689834999997402;001;FSNS94;2019_Dec_03_1034;iat_vr;60.20795828790791;
1;BLUME;Natur;q;0;7;7;2;q;1;5.532208599999649;001;FSNS94;2019_Dec_03_1034;iat_vr;60.20795828790791;
1;COMPUTER;Gemacht;p;0;8;8;8;p;1;1.951919199999793;001;FSNS94;2019_Dec_03_1034;iat_vr;60.20795828790791;
1;GEBÄUDE;Gemacht;p;0;9;9;5;p;1;0.7455522000000201;001;FSNS94;2019_Dec_03_1034;iat_vr;60.20795828790791;
1;STADT;Gemacht;p;1;0;10;6;p;1;1.1477719000004072;001;FSNS94;2019_Dec_03_1034;iat_vr;60.20795828790791;
1;STEIN;Natur;q;1;1;11;4;q;1;0.8359939000001759;001;FSNS94;2019_Dec_03_1034;iat_vr;60.20795828790791;
1;GEBÄUDE;Gemacht;p;1;2;12;5;p;1;2.2003348000007463;001;FSNS94;2019_Dec_03_1034;iat_vr;60.20795828790791;
1;BLUME;Natur;q;1;3;13;2;q;1;0.6325383000003058;001;FSNS94;2019_Dec_03_1034;iat_vr;60.20795828790791;
1;LAMPE;Gemacht;p;1;4;14;9;p;1;1.2295046999997794;001;FSNS94;2019_Dec_03_1034;iat_vr;60.20795828790791;
1;COMPUTER;Gemacht;p;1;5;15;8;p;1;1.5187886000003346;001;FSNS94;2019_Dec_03_1034;iat_vr;60.20795828790791;
1;KLEIDER;Gemacht;p;1;6;16;7;p;1;1.978755999999521;001;FSNS94;2019_Dec_03_1034;iat_vr;60.20795828790791;
1;WASSER;Natur;q;1;7;17;1;q;1;0.6157558000004428;001;FSNS94;2019_Dec_03_1034;iat_vr;60.20795828790791;
1;BAUM;Natur;q;1;8;18;0;q;1;0.6629790999995748;001;FSNS94;2019_Dec_03_1034;iat_vr;60.20795828790791;
1;TIER;Natur;q;1;9;19;3;q;1;0.5009808000004341;001;FSNS94;2019_Dec_03_1034;iat_vr;60.20795828790791;
;;;;;;;;;;;001;FSNS94;2019_Dec_03_1034;iat_vr;60.20795828790791;
2;SCHLIMM;negativ;q;0;0;0;0;q;1;1.078449499999806;001;FSNS94;2019_Dec_03_1034;iat_vr;60.20795828790791;
2;SCHLECHT;negativ;q;0;1;1;1;q;1;0.6353557000002183;001;FSNS94;2019_Dec_03_1034;iat_vr;60.20795828790791;
2;HERVORRAGEND;positiv;p;0;2;2;7;p;1;0.7518951000001834;001;FSNS94;2019_Dec_03_1034;iat_vr;60.20795828790791;
2;NEGATIV;negativ;q;0;3;3;2;q;1;0.6617608999995355;001;FSNS94;2019_Dec_03_1034;iat_vr;60.20795828790791;
2;AUSGEZEICHNET;positiv;p;0;4;4;5;p;1;0.8478313000005073;001;FSNS94;2019_Dec_03_1034;iat_vr;60.20795828790791;
2;GUT;positiv;p;0;5;5;9;p;1;0.48323309999977937;001;FSNS94;2019_Dec_03_1034;iat_vr;60.20795828790791;
2;SCHÄDLICH;negativ;q;0;6;6;3;q;1;0.5524671000002854;001;FSNS94;2019_Dec_03_1034;iat_vr;60.20795828790791;
2;POSITIV;positiv;p;0;7;7;8;p;1;0.44718120000015915;001;FSNS94;2019_Dec_03_1034;iat_vr;60.20795828790791;
2;EINWANDFREI;positiv;p;0;8;8;6;p;1;0.6397924000002604;001;FSNS94;2019_Dec_03_1034;iat_vr;60.20795828790791;
2;SCHWACH;negativ;q;0;9;9;4;p;0;0.4296515999994881;001;FSNS94;2019_Dec_03_1034;iat_vr;60.20795828790791;
2;EINWANDFREI;positiv;p;1;0;10;6;p;1;2.6158519999999044;001;FSNS94;2019_Dec_03_1034;iat_vr;60.20795828790791;
2;NEGATIV;negativ;q;1;1;11;2;q;1;1.731141100000059;001;FSNS94;2019_Dec_03_1034;iat_vr;60.20795828790791;
2;POSITIV;positiv;p;1;2;12;8;p;1;0.6606875000006767;001;FSNS94;2019_Dec_03_1034;iat_vr;60.20795828790791;
2;HERVORRAGEND;positiv;p;1;3;13;7;p;1;1.3668918000003032;001;FSNS94;2019_Dec_03_1034;iat_vr;60.20795828790791;
2;SCHWACH;negativ;q;1;4;14;4;q;1;0.8465475000002698;001;FSNS94;2019_Dec_03_1034;iat_vr;60.20795828790791;
2;SCHÄDLICH;negativ;q;1;5;15;3;q;1;1.6470148000007612;001;FSNS94;2019_Dec_03_1034;iat_vr;60.20795828790791;
2;GUT;positiv;p;1;6;16;9;p;1;1.6350093000000925;001;FSNS94;2019_Dec_03_1034;iat_vr;60.20795828790791;
2;AUSGEZEICHNET;positiv;p;1;7;17;5;p;1;0.6793210999994699;001;FSNS94;2019_Dec_03_1034;iat_vr;60.20795828790791;
2;SCHLIMM;negativ;q;1;8;18;0;q;1;0.5977197000001979;001;FSNS94;2019_Dec_03_1034;iat_vr;60.20795828790791;
2;SCHLECHT;negativ;q;1;9;19;1;q;1;0.9314438999999766;001;FSNS94;2019_Dec_03_1034;iat_vr;60.20795828790791;
;;;;;;;;;;;001;FSNS94;2019_Dec_03_1034;iat_vr;60.20795828790791;
3;KLEIDER;Gemacht;p;0;0;0;17;p;1;1.5434641000001648;001;FSNS94;2019_Dec_03_1034;iat_vr;60.20795828790791;
3;STEIN;Natur;q;0;1;1;14;q;1;0.9669906999997693;001;FSNS94;2019_Dec_03_1034;iat_vr;60.20795828790791;
3;NEGATIV;negativ;q;0;2;2;2;q;1;1.8934980000003634;001;FSNS94;2019_Dec_03_1034;iat_vr;60.20795828790791;
3;SCHÄDLICH;negativ;q;0;3;3;3;q;1;0.6675488000000769;001;FSNS94;2019_Dec_03_1034;iat_vr;60.20795828790791;
3;GUT;positiv;p;0;4;4;9;p;1;0.698424199999863;001;FSNS94;2019_Dec_03_1034;iat_vr;60.20795828790791;
3;TIER;Natur;q;0;5;5;13;q;1;0.8819266999998945;001;FSNS94;2019_Dec_03_1034;iat_vr;60.20795828790791;
3;POSITIV;positiv;p;0;6;6;8;p;1;1.0624453999998877;001;FSNS94;2019_Dec_03_1034;iat_vr;60.20795828790791;
3;SCHWACH;negativ;q;0;7;7;4;q;1;0.9978001999998014;001;FSNS94;2019_Dec_03_1034;iat_vr;60.20795828790791;
3;WASSER;Natur;q;0;8;8;11;q;1;2.130934200000411;001;FSNS94;2019_Dec_03_1034;iat_vr;60.20795828790791;
3;AUSGEZEICHNET;positiv;p;0;9;9;5;p;1;1.2901010999994469;001;FSNS94;2019_Dec_03_1034;iat_vr;60.20795828790791;
3;GEBÄUDE;Gemacht;p;0;10;10;15;p;1;1.5688495000003968;001;FSNS94;2019_Dec_03_1034;iat_vr;60.20795828790791;
3;SCHLIMM;negativ;q;0;11;11;0;q;1;0.9470215999999709;001;FSNS94;2019_Dec_03_1034;iat_vr;60.20795828790791;
3;EINWANDFREI;positiv;p;0;12;12;6;p;1;1.1910490999998729;001;FSNS94;2019_Dec_03_1034;iat_vr;60.20795828790791;
3;STADT;Gemacht;p;0;13;13;16;p;1;1.18452569999954;001;FSNS94;2019_Dec_03_1034;iat_vr;60.20795828790791;
3;BLUME;Natur;q;0;14;14;12;q;1;0.8838172000005216;001;FSNS94;2019_Dec_03_1034;iat_vr;60.20795828790791;
3;HERVORRAGEND;positiv;p;0;15;15;7;p;1;1.0640989000003174;001;FSNS94;2019_Dec_03_1034;iat_vr;60.20795828790791;
3;COMPUTER;Gemacht;p;0;16;16;18;p;1;1.6626790999998775;001;FSNS94;2019_Dec_03_1034;iat_vr;60.20795828790791;
3;LAMPE;Gemacht;p;0;17;17;19;p;1;0.8017740999994203;001;FSNS94;2019_Dec_03_1034;iat_vr;60.20795828790791;
3;BAUM;Natur;q;0;18;18;10;q;1;0.8357500000001892;001;FSNS94;2019_Dec_03_1034;iat_vr;60.20795828790791;
3;SCHLECHT;negativ;q;0;19;19;1;q;1;0.9682946999992055;001;FSNS94;2019_Dec_03_1034;iat_vr;60.20795828790791;
;;;;;;;;;;;001;FSNS94;2019_Dec_03_1034;iat_vr;60.20795828790791;
4;GEBÄUDE;Gemacht;p;0;0;0;15;p;1;1.5687521999998353;001;FSNS94;2019_Dec_03_1034;iat_vr;60.20795828790791;
4;LAMPE;Gemacht;p;0;1;1;19;p;1;0.8481560000000172;001;FSNS94;2019_Dec_03_1034;iat_vr;60.20795828790791;
4;STADT;Gemacht;p;0;2;2;16;p;1;0.8971974000005503;001;FSNS94;2019_Dec_03_1034;iat_vr;60.20795828790791;
4;SCHWACH;negativ;q;0;3;3;4;q;1;1.1978229999995165;001;FSNS94;2019_Dec_03_1034;iat_vr;60.20795828790791;
4;STEIN;Natur;q;0;4;4;14;q;1;0.8313576999998986;001;FSNS94;2019_Dec_03_1034;iat_vr;60.20795828790791;
4;HERVORRAGEND;positiv;p;0;5;5;7;p;1;0.8018769999998767;001;FSNS94;2019_Dec_03_1034;iat_vr;60.20795828790791;
4;SCHLECHT;negativ;q;0;6;6;1;q;1;1.1276700000007622;001;FSNS94;2019_Dec_03_1034;iat_vr;60.20795828790791;
4;SCHLIMM;negativ;q;0;7;7;0;q;1;1.146720799999457;001;FSNS94;2019_Dec_03_1034;iat_vr;60.20795828790791;
4;NEGATIV;negativ;q;0;8;8;2;q;1;0.5167644000002838;001;FSNS94;2019_Dec_03_1034;iat_vr;60.20795828790791;
4;BLUME;Natur;q;0;9;9;12;q;1;0.7957022999999026;001;FSNS94;2019_Dec_03_1034;iat_vr;60.20795828790791;
4;EINWANDFREI;positiv;p;0;10;10;6;p;1;1.1348586000003706;001;FSNS94;2019_Dec_03_1034;iat_vr;60.20795828790791;
4;SCHÄDLICH;negativ;q;0;11;11;3;q;1;0.7970303000001877;001;FSNS94;2019_Dec_03_1034;iat_vr;60.20795828790791;
4;AUSGEZEICHNET;positiv;p;0;12;12;5;p;1;0.7465327999998408;001;FSNS94;2019_Dec_03_1034;iat_vr;60.20795828790791;
4;KLEIDER;Gemacht;p;0;13;13;17;p;1;1.3985177000004114;001;FSNS94;2019_Dec_03_1034;iat_vr;60.20795828790791;
4;POSITIV;positiv;p;0;14;14;8;p;1;1.6493972000007489;001;FSNS94;2019_Dec_03_1034;iat_vr;60.20795828790791;
4;WASSER;Natur;q;0;15;15;11;q;1;0.9505948999994871;001;FSNS94;2019_Dec_03_1034;iat_vr;60.20795828790791;
4;GUT;positiv;p;0;16;16;9;p;1;1.716545899999801;001;FSNS94;2019_Dec_03_1034;iat_vr;60.20795828790791;
4;TIER;Natur;q;0;17;17;13;q;1;1.0650659000002634;001;FSNS94;2019_Dec_03_1034;iat_vr;60.20795828790791;
4;COMPUTER;Gemacht;p;0;18;18;18;p;1;0.6958448000004864;001;FSNS94;2019_Dec_03_1034;iat_vr;60.20795828790791;
4;BAUM;Natur;q;0;19;19;10;q;1;0.6178847999999562;001;FSNS94;2019_Dec_03_1034;iat_vr;60.20795828790791;
4;NEGATIV;negativ;q;1;0;20;2;q;1;1.635110700000041;001;FSNS94;2019_Dec_03_1034;iat_vr;60.20795828790791;
4;WASSER;Natur;q;1;1;21;11;q;1;0.6142965999997614;001;FSNS94;2019_Dec_03_1034;iat_vr;60.20795828790791;
4;BAUM;Natur;q;1;2;22;10;q;1;0.5641962999998213;001;FSNS94;2019_Dec_03_1034;iat_vr;60.20795828790791;
4;SCHÄDLICH;negativ;q;1;3;23;3;q;1;0.735562700000628;001;FSNS94;2019_Dec_03_1034;iat_vr;60.20795828790791;
4;STADT;Gemacht;p;1;4;24;16;p;1;0.7301987999999255;001;FSNS94;2019_Dec_03_1034;iat_vr;60.20795828790791;
4;SCHLIMM;negativ;q;1;5;25;0;q;1;1.2474736999993183;001;FSNS94;2019_Dec_03_1034;iat_vr;60.20795828790791;
4;EINWANDFREI;positiv;p;1;6;26;6;p;1;0.9817521999993915;001;FSNS94;2019_Dec_03_1034;iat_vr;60.20795828790791;
4;STEIN;Natur;q;1;7;27;14;q;1;0.652154899999914;001;FSNS94;2019_Dec_03_1034;iat_vr;60.20795828790791;
4;POSITIV;positiv;p;1;8;28;8;p;1;0.614564500000597;001;FSNS94;2019_Dec_03_1034;iat_vr;60.20795828790791;
4;TIER;Natur;q;1;9;29;13;q;1;0.6126744000002873;001;FSNS94;2019_Dec_03_1034;iat_vr;60.20795828790791;
4;HERVORRAGEND;positiv;p;1;10;30;7;p;1;0.6946031999996194;001;FSNS94;2019_Dec_03_1034;iat_vr;60.20795828790791;
4;GUT;positiv;p;1;11;31;9;p;1;0.7675378000003548;001;FSNS94;2019_Dec_03_1034;iat_vr;60.20795828790791;
4;LAMPE;Gemacht;p;1;12;32;19;p;1;0.7484346000001096;001;FSNS94;2019_Dec_03_1034;iat_vr;60.20795828790791;
4;SCHWACH;negativ;q;1;13;33;4;q;1;0.6791673999996419;001;FSNS94;2019_Dec_03_1034;iat_vr;60.20795828790791;
4;AUSGEZEICHNET;positiv;p;1;14;34;5;p;1;0.8440074999998615;001;FSNS94;2019_Dec_03_1034;iat_vr;60.20795828790791;
4;BLUME;Natur;q;1;15;35;12;q;1;1.0153449999997974;001;FSNS94;2019_Dec_03_1034;iat_vr;60.20795828790791;
4;GEBÄUDE;Gemacht;p;1;16;36;15;p;1;1.196450399999776;001;FSNS94;2019_Dec_03_1034;iat_vr;60.20795828790791;
4;COMPUTER;Gemacht;p;1;17;37;18;p;1;0.4823179999993954;001;FSNS94;2019_Dec_03_1034;iat_vr;60.20795828790791;
4;KLEIDER;Gemacht;p;1;18;38;17;p;1;0.5464758999996775;001;FSNS94;2019_Dec_03_1034;iat_vr;60.20795828790791;
4;SCHLECHT;negativ;q;1;19;39;1;q;1;1.4101933000001736;001;FSNS94;2019_Dec_03_1034;iat_vr;60.20795828790791;
;;;;;;;;;;;001;FSNS94;2019_Dec_03_1034;iat_vr;60.20795828790791;
5;TIER;Natur;p;0;0;0;3;p;1;0.8890114999994694;001;FSNS94;2019_Dec_03_1034;iat_vr;60.20795828790791;
5;STEIN;Natur;p;0;1;1;4;p;1;0.5342843999997058;001;FSNS94;2019_Dec_03_1034;iat_vr;60.20795828790791;
5;LAMPE;Gemacht;q;0;2;2;9;q;1;0.6173076999994009;001;FSNS94;2019_Dec_03_1034;iat_vr;60.20795828790791;
5;BLUME;Natur;p;0;3;3;2;p;1;0.5531056999998327;001;FSNS94;2019_Dec_03_1034;iat_vr;60.20795828790791;
5;COMPUTER;Gemacht;q;0;4;4;8;q;1;0.6997811999999612;001;FSNS94;2019_Dec_03_1034;iat_vr;60.20795828790791;
5;WASSER;Natur;p;0;5;5;1;p;1;0.5792188000004899;001;FSNS94;2019_Dec_03_1034;iat_vr;60.20795828790791;
5;STADT;Gemacht;q;0;6;6;6;q;1;0.7504218000003675;001;FSNS94;2019_Dec_03_1034;iat_vr;60.20795828790791;
5;GEBÄUDE;Gemacht;q;0;7;7;5;q;1;0.716449300000022;001;FSNS94;2019_Dec_03_1034;iat_vr;60.20795828790791;
5;BAUM;Natur;p;0;8;8;0;p;1;0.5855376999998043;001;FSNS94;2019_Dec_03_1034;iat_vr;60.20795828790791;
5;KLEIDER;Gemacht;q;0;9;9;7;q;1;0.9483394999997472;001;FSNS94;2019_Dec_03_1034;iat_vr;60.20795828790791;
5;TIER;Natur;p;1;0;10;3;p;1;0.7819107000004806;001;FSNS94;2019_Dec_03_1034;iat_vr;60.20795828790791;
5;KLEIDER;Gemacht;q;1;1;11;7;q;1;0.7836476000002222;001;FSNS94;2019_Dec_03_1034;iat_vr;60.20795828790791;
5;LAMPE;Gemacht;q;1;2;12;9;q;1;0.5140191999998933;001;FSNS94;2019_Dec_03_1034;iat_vr;60.20795828790791;
5;STADT;Gemacht;q;1;3;13;6;q;1;0.6141932000000452;001;FSNS94;2019_Dec_03_1034;iat_vr;60.20795828790791;
5;STEIN;Natur;p;1;4;14;4;q;0;0.5023413999997501;001;FSNS94;2019_Dec_03_1034;iat_vr;60.20795828790791;
5;GEBÄUDE;Gemacht;q;1;5;15;5;q;1;1.0140424000001076;001;FSNS94;2019_Dec_03_1034;iat_vr;60.20795828790791;
5;BAUM;Natur;p;1;6;16;0;p;1;1.2933365999997477;001;FSNS94;2019_Dec_03_1034;iat_vr;60.20795828790791;
5;BLUME;Natur;p;1;7;17;2;p;1;0.48507580000023154;001;FSNS94;2019_Dec_03_1034;iat_vr;60.20795828790791;
5;COMPUTER;Gemacht;q;1;8;18;8;q;1;0.6319209000002957;001;FSNS94;2019_Dec_03_1034;iat_vr;60.20795828790791;
5;WASSER;Natur;p;1;9;19;1;p;1;0.84829499999978;001;FSNS94;2019_Dec_03_1034;iat_vr;60.20795828790791;
;;;;;;;;;;;001;FSNS94;2019_Dec_03_1034;iat_vr;60.20795828790791;
6;SCHÄDLICH;negativ;q;0;0;0;13;q;1;0.9558535000005577;001;FSNS94;2019_Dec_03_1034;iat_vr;60.20795828790791;
6;KLEIDER;Gemacht;q;0;1;1;7;q;1;0.7184324999998353;001;FSNS94;2019_Dec_03_1034;iat_vr;60.20795828790791;
6;GUT;positiv;p;0;2;2;19;p;1;1.249624899999617;001;FSNS94;2019_Dec_03_1034;iat_vr;60.20795828790791;
6;STEIN;Natur;p;0;3;3;4;p;1;0.7321605000006457;001;FSNS94;2019_Dec_03_1034;iat_vr;60.20795828790791;
6;POSITIV;positiv;p;0;4;4;18;p;1;0.5424791999994341;001;FSNS94;2019_Dec_03_1034;iat_vr;60.20795828790791;
6;COMPUTER;Gemacht;q;0;5;5;8;q;1;0.6305381000001944;001;FSNS94;2019_Dec_03_1034;iat_vr;60.20795828790791;
6;SCHLECHT;negativ;q;0;6;6;11;q;1;0.6625750000002881;001;FSNS94;2019_Dec_03_1034;iat_vr;60.20795828790791;
6;NEGATIV;negativ;q;0;7;7;12;p;0;0.6665068000002066;001;FSNS94;2019_Dec_03_1034;iat_vr;60.20795828790791;
6;TIER;Natur;p;0;8;8;3;p;1;1.0301649000002726;001;FSNS94;2019_Dec_03_1034;iat_vr;60.20795828790791;
6;WASSER;Natur;p;0;9;9;1;p;1;0.5468472000002293;001;FSNS94;2019_Dec_03_1034;iat_vr;60.20795828790791;
6;AUSGEZEICHNET;positiv;p;0;10;10;15;p;1;0.5178706000006059;001;FSNS94;2019_Dec_03_1034;iat_vr;60.20795828790791;
6;HERVORRAGEND;positiv;p;0;11;11;17;p;1;0.4781625999994503;001;FSNS94;2019_Dec_03_1034;iat_vr;60.20795828790791;
6;BAUM;Natur;p;0;12;12;0;p;1;0.4152358000001186;001;FSNS94;2019_Dec_03_1034;iat_vr;60.20795828790791;
6;LAMPE;Gemacht;q;0;13;13;9;p;0;0.3630391000006057;001;FSNS94;2019_Dec_03_1034;iat_vr;60.20795828790791;
6;EINWANDFREI;positiv;p;0;14;14;16;p;1;0.7629796000001079;001;FSNS94;2019_Dec_03_1034;iat_vr;60.20795828790791;
6;SCHWACH;negativ;q;0;15;15;14;q;1;0.7972459000002345;001;FSNS94;2019_Dec_03_1034;iat_vr;60.20795828790791;
6;SCHLIMM;negativ;q;0;16;16;10;q;1;0.6357282999997551;001;FSNS94;2019_Dec_03_1034;iat_vr;60.20795828790791;
6;GEBÄUDE;Gemacht;q;0;17;17;5;q;1;0.6626755999996021;001;FSNS94;2019_Dec_03_1034;iat_vr;60.20795828790791;
6;BLUME;Natur;p;0;18;18;2;p;1;0.6336855999998079;001;FSNS94;2019_Dec_03_1034;iat_vr;60.20795828790791;
6;STADT;Gemacht;q;0;19;19;6;q;1;0.8145222999992257;001;FSNS94;2019_Dec_03_1034;iat_vr;60.20795828790791;
;;;;;;;;;;;001;FSNS94;2019_Dec_03_1034;iat_vr;60.20795828790791;
7;COMPUTER;Gemacht;q;0;0;0;8;q;1;0.6077354999997624;001;FSNS94;2019_Dec_03_1034;iat_vr;60.20795828790791;
7;HERVORRAGEND;positiv;p;0;1;1;17;p;1;0.6294582000000446;001;FSNS94;2019_Dec_03_1034;iat_vr;60.20795828790791;
7;STEIN;Natur;p;0;2;2;4;p;1;0.7319502000000284;001;FSNS94;2019_Dec_03_1034;iat_vr;60.20795828790791;
7;LAMPE;Gemacht;q;0;3;3;9;q;1;0.6127272000003359;001;FSNS94;2019_Dec_03_1034;iat_vr;60.20795828790791;
7;SCHWACH;negativ;q;0;4;4;14;q;1;0.6860796000000846;001;FSNS94;2019_Dec_03_1034;iat_vr;60.20795828790791;
7;TIER;Natur;p;0;5;5;3;p;1;0.6148238000005222;001;FSNS94;2019_Dec_03_1034;iat_vr;60.20795828790791;
7;POSITIV;positiv;p;0;6;6;18;p;1;0.9464729000001171;001;FSNS94;2019_Dec_03_1034;iat_vr;60.20795828790791;
7;AUSGEZEICHNET;positiv;p;0;7;7;15;p;1;0.7293566999996983;001;FSNS94;2019_Dec_03_1034;iat_vr;60.20795828790791;
7;GEBÄUDE;Gemacht;q;0;8;8;5;q;1;0.715881599999193;001;FSNS94;2019_Dec_03_1034;iat_vr;60.20795828790791;
7;NEGATIV;negativ;q;0;9;9;12;q;1;0.6640673000001698;001;FSNS94;2019_Dec_03_1034;iat_vr;60.20795828790791;
7;SCHÄDLICH;negativ;q;0;10;10;13;q;1;0.5518345000000409;001;FSNS94;2019_Dec_03_1034;iat_vr;60.20795828790791;
7;SCHLIMM;negativ;q;0;11;11;10;q;1;0.6978476000003866;001;FSNS94;2019_Dec_03_1034;iat_vr;60.20795828790791;
7;STADT;Gemacht;q;0;12;12;6;p;0;0.4646182000005865;001;FSNS94;2019_Dec_03_1034;iat_vr;60.20795828790791;
7;WASSER;Natur;p;0;13;13;1;p;1;0.6969871999999668;001;FSNS94;2019_Dec_03_1034;iat_vr;60.20795828790791;
7;BAUM;Natur;p;0;14;14;0;p;1;0.5021778999998787;001;FSNS94;2019_Dec_03_1034;iat_vr;60.20795828790791;
7;BLUME;Natur;p;0;15;15;2;p;1;0.5115968000000066;001;FSNS94;2019_Dec_03_1034;iat_vr;60.20795828790791;
7;KLEIDER;Gemacht;q;0;16;16;7;p;0;0.49795999999969354;001;FSNS94;2019_Dec_03_1034;iat_vr;60.20795828790791;
7;SCHLECHT;negativ;q;0;17;17;11;q;1;0.7343173999997816;001;FSNS94;2019_Dec_03_1034;iat_vr;60.20795828790791;
7;GUT;positiv;p;0;18;18;19;p;1;0.8845718000002307;001;FSNS94;2019_Dec_03_1034;iat_vr;60.20795828790791;
7;EINWANDFREI;positiv;p;0;19;19;16;p;1;0.8349210000005769;001;FSNS94;2019_Dec_03_1034;iat_vr;60.20795828790791;
7;WASSER;Natur;p;1;0;20;1;q;0;0.5665509999998903;001;FSNS94;2019_Dec_03_1034;iat_vr;60.20795828790791;
7;STEIN;Natur;p;1;1;21;4;p;1;0.8320559000003414;001;FSNS94;2019_Dec_03_1034;iat_vr;60.20795828790791;
7;SCHLIMM;negativ;q;1;2;22;10;q;1;0.6352019000005384;001;FSNS94;2019_Dec_03_1034;iat_vr;60.20795828790791;
7;EINWANDFREI;positiv;p;1;3;23;16;p;1;2.497221300000092;001;FSNS94;2019_Dec_03_1034;iat_vr;60.20795828790791;
7;AUSGEZEICHNET;positiv;p;1;4;24;15;p;1;0.591653800000131;001;FSNS94;2019_Dec_03_1034;iat_vr;60.20795828790791;
7;SCHÄDLICH;negativ;q;1;5;25;13;q;1;0.5853391999999076;001;FSNS94;2019_Dec_03_1034;iat_vr;60.20795828790791;
7;GEBÄUDE;Gemacht;q;1;6;26;5;q;1;0.7808199999999488;001;FSNS94;2019_Dec_03_1034;iat_vr;60.20795828790791;
7;HERVORRAGEND;positiv;p;1;7;27;17;p;1;0.6280331999996633;001;FSNS94;2019_Dec_03_1034;iat_vr;60.20795828790791;
7;TIER;Natur;p;1;8;28;3;p;1;0.7458276999996087;001;FSNS94;2019_Dec_03_1034;iat_vr;60.20795828790791;
7;SCHWACH;negativ;q;1;9;29;14;q;1;1.230660600000192;001;FSNS94;2019_Dec_03_1034;iat_vr;60.20795828790791;
7;KLEIDER;Gemacht;q;1;10;30;7;q;1;0.6665444999998726;001;FSNS94;2019_Dec_03_1034;iat_vr;60.20795828790791;
7;POSITIV;positiv;p;1;11;31;18;p;1;0.6156854000000749;001;FSNS94;2019_Dec_03_1034;iat_vr;60.20795828790791;
7;LAMPE;Gemacht;q;1;12;32;9;q;1;0.7304684999999154;001;FSNS94;2019_Dec_03_1034;iat_vr;60.20795828790791;
7;GUT;positiv;p;1;13;33;19;p;1;0.7300869000000603;001;FSNS94;2019_Dec_03_1034;iat_vr;60.20795828790791;
7;STADT;Gemacht;q;1;14;34;6;q;1;0.61898199999996;001;FSNS94;2019_Dec_03_1034;iat_vr;60.20795828790791;
7;COMPUTER;Gemacht;q;1;15;35;8;q;1;1.3136933000005229;001;FSNS94;2019_Dec_03_1034;iat_vr;60.20795828790791;
7;BLUME;Natur;p;1;16;36;2;p;1;0.5472546000000875;001;FSNS94;2019_Dec_03_1034;iat_vr;60.20795828790791;
7;SCHLECHT;negativ;q;1;17;37;11;q;1;0.5107189999998809;001;FSNS94;2019_Dec_03_1034;iat_vr;60.20795828790791;
7;NEGATIV;negativ;q;1;18;38;12;q;1;0.526329799999985;001;FSNS94;2019_Dec_03_1034;iat_vr;60.20795828790791;
7;BAUM;Natur;p;1;19;39;0;p;1;0.8126324999993813;001;FSNS94;2019_Dec_03_1034;iat_vr;60.20795828790791;
;;;;;;;;;;;001;FSNS94;2019_Dec_03_1034;iat_vr;60.20795828790791;
