Block;Word;Category;CorrResp;trials.thisRepN;trials.thisTrialN;trials.thisN;trials.thisIndex;key_resp_2.keys;key_resp_2.corr;key_resp_2.rt;session;participant;date;expName;frameRate;
1;STEIN;Natur;q;0;0;0;4;q;1;2.1981828000025416;001;FSPG98;2019_Dec_03_1404;iat_vr;60.13268879120423;
1;KLEIDER;Gemacht;p;0;1;1;7;p;1;0.7715987999981735;001;FSPG98;2019_Dec_03_1404;iat_vr;60.13268879120423;
1;GEBÄUDE;Gemacht;p;0;2;2;5;p;1;0.7852242000008118;001;FSPG98;2019_Dec_03_1404;iat_vr;60.13268879120423;
1;BLUME;Natur;q;0;3;3;2;q;1;0.6258931999982451;001;FSPG98;2019_Dec_03_1404;iat_vr;60.13268879120423;
1;STADT;Gemacht;p;0;4;4;6;p;1;0.6467658000001393;001;FSPG98;2019_Dec_03_1404;iat_vr;60.13268879120423;
1;WASSER;Natur;q;0;5;5;1;q;1;0.6759253000018361;001;FSPG98;2019_Dec_03_1404;iat_vr;60.13268879120423;
1;LAMPE;Gemacht;p;0;6;6;9;p;1;0.6792514000007941;001;FSPG98;2019_Dec_03_1404;iat_vr;60.13268879120423;
1;TIER;Natur;q;0;7;7;3;q;1;0.816012999999657;001;FSPG98;2019_Dec_03_1404;iat_vr;60.13268879120423;
1;BAUM;Natur;q;0;8;8;0;q;1;0.9154630000011821;001;FSPG98;2019_Dec_03_1404;iat_vr;60.13268879120423;
1;COMPUTER;Gemacht;p;0;9;9;8;p;1;0.806440799999109;001;FSPG98;2019_Dec_03_1404;iat_vr;60.13268879120423;
1;WASSER;Natur;q;1;0;10;1;q;1;0.6315131000010297;001;FSPG98;2019_Dec_03_1404;iat_vr;60.13268879120423;
1;BLUME;Natur;q;1;1;11;2;q;1;0.7315645999988192;001;FSPG98;2019_Dec_03_1404;iat_vr;60.13268879120423;
1;LAMPE;Gemacht;p;1;2;12;9;p;1;0.7475556999997934;001;FSPG98;2019_Dec_03_1404;iat_vr;60.13268879120423;
1;STADT;Gemacht;p;1;3;13;6;p;1;0.6312698999972781;001;FSPG98;2019_Dec_03_1404;iat_vr;60.13268879120423;
1;COMPUTER;Gemacht;p;1;4;14;8;p;1;1.0627598999999464;001;FSPG98;2019_Dec_03_1404;iat_vr;60.13268879120423;
1;GEBÄUDE;Gemacht;p;1;5;15;5;p;1;0.8526200999986031;001;FSPG98;2019_Dec_03_1404;iat_vr;60.13268879120423;
1;KLEIDER;Gemacht;p;1;6;16;7;p;1;0.728107099999761;001;FSPG98;2019_Dec_03_1404;iat_vr;60.13268879120423;
1;TIER;Natur;q;1;7;17;3;q;1;0.565519799998583;001;FSPG98;2019_Dec_03_1404;iat_vr;60.13268879120423;
1;BAUM;Natur;q;1;8;18;0;q;1;0.6321652999977232;001;FSPG98;2019_Dec_03_1404;iat_vr;60.13268879120423;
1;STEIN;Natur;q;1;9;19;4;q;1;0.5986162000008335;001;FSPG98;2019_Dec_03_1404;iat_vr;60.13268879120423;
;;;;;;;;;;;001;FSPG98;2019_Dec_03_1404;iat_vr;60.13268879120423;
2;EINWANDFREI;positiv;p;0;0;0;6;q;0;4.259813000000577;001;FSPG98;2019_Dec_03_1404;iat_vr;60.13268879120423;
2;NEGATIV;negativ;q;0;1;1;2;q;1;4.810342699998728;001;FSPG98;2019_Dec_03_1404;iat_vr;60.13268879120423;
2;GUT;positiv;p;0;2;2;9;p;1;1.100224400001025;001;FSPG98;2019_Dec_03_1404;iat_vr;60.13268879120423;
2;AUSGEZEICHNET;positiv;p;0;3;3;5;p;1;1.0044455000024755;001;FSPG98;2019_Dec_03_1404;iat_vr;60.13268879120423;
2;SCHWACH;negativ;q;0;4;4;4;q;1;1.1469266999993124;001;FSPG98;2019_Dec_03_1404;iat_vr;60.13268879120423;
2;SCHLECHT;negativ;q;0;5;5;1;q;1;0.8808925000012096;001;FSPG98;2019_Dec_03_1404;iat_vr;60.13268879120423;
2;SCHÄDLICH;negativ;q;0;6;6;3;q;1;0.7122785000028671;001;FSPG98;2019_Dec_03_1404;iat_vr;60.13268879120423;
2;SCHLIMM;negativ;q;0;7;7;0;q;1;0.6815891999976884;001;FSPG98;2019_Dec_03_1404;iat_vr;60.13268879120423;
2;HERVORRAGEND;positiv;p;0;8;8;7;p;1;0.7648086000008334;001;FSPG98;2019_Dec_03_1404;iat_vr;60.13268879120423;
2;POSITIV;positiv;p;0;9;9;8;p;1;0.5983625999979267;001;FSPG98;2019_Dec_03_1404;iat_vr;60.13268879120423;
2;EINWANDFREI;positiv;p;1;0;10;6;p;1;1.0140777999986312;001;FSPG98;2019_Dec_03_1404;iat_vr;60.13268879120423;
2;NEGATIV;negativ;q;1;1;11;2;q;1;1.0647343000018736;001;FSPG98;2019_Dec_03_1404;iat_vr;60.13268879120423;
2;SCHÄDLICH;negativ;q;1;2;12;3;q;1;1.530531600001268;001;FSPG98;2019_Dec_03_1404;iat_vr;60.13268879120423;
2;SCHWACH;negativ;q;1;3;13;4;q;1;0.5780799999993178;001;FSPG98;2019_Dec_03_1404;iat_vr;60.13268879120423;
2;HERVORRAGEND;positiv;p;1;4;14;7;p;1;0.7147613999986788;001;FSPG98;2019_Dec_03_1404;iat_vr;60.13268879120423;
2;POSITIV;positiv;p;1;5;15;8;p;1;0.6361963000017568;001;FSPG98;2019_Dec_03_1404;iat_vr;60.13268879120423;
2;AUSGEZEICHNET;positiv;p;1;6;16;5;p;1;0.7025563999995939;001;FSPG98;2019_Dec_03_1404;iat_vr;60.13268879120423;
2;GUT;positiv;p;1;7;17;9;p;1;0.6669852000013634;001;FSPG98;2019_Dec_03_1404;iat_vr;60.13268879120423;
2;SCHLIMM;negativ;q;1;8;18;0;q;1;0.634046600000147;001;FSPG98;2019_Dec_03_1404;iat_vr;60.13268879120423;
2;SCHLECHT;negativ;q;1;9;19;1;q;1;0.713672800000495;001;FSPG98;2019_Dec_03_1404;iat_vr;60.13268879120423;
;;;;;;;;;;;001;FSPG98;2019_Dec_03_1404;iat_vr;60.13268879120423;
3;BAUM;Natur;q;0;0;0;10;q;1;1.232021200001327;001;FSPG98;2019_Dec_03_1404;iat_vr;60.13268879120423;
3;STADT;Gemacht;p;0;1;1;16;p;1;0.7649099999980535;001;FSPG98;2019_Dec_03_1404;iat_vr;60.13268879120423;
3;SCHLECHT;negativ;q;0;2;2;1;q;1;1.380976100001135;001;FSPG98;2019_Dec_03_1404;iat_vr;60.13268879120423;
3;NEGATIV;negativ;q;0;3;3;2;q;1;1.129740899999888;001;FSPG98;2019_Dec_03_1404;iat_vr;60.13268879120423;
3;STEIN;Natur;q;0;4;4;14;q;1;0.8152417999990575;001;FSPG98;2019_Dec_03_1404;iat_vr;60.13268879120423;
3;SCHÄDLICH;negativ;q;0;5;5;3;q;1;1.030715599998075;001;FSPG98;2019_Dec_03_1404;iat_vr;60.13268879120423;
3;POSITIV;positiv;p;0;6;6;8;p;1;1.4475387999991653;001;FSPG98;2019_Dec_03_1404;iat_vr;60.13268879120423;
3;AUSGEZEICHNET;positiv;p;0;7;7;5;p;1;0.8926677999988897;001;FSPG98;2019_Dec_03_1404;iat_vr;60.13268879120423;
3;SCHLIMM;negativ;q;0;8;8;0;q;1;0.6307645999986562;001;FSPG98;2019_Dec_03_1404;iat_vr;60.13268879120423;
3;TIER;Natur;q;0;9;9;13;q;1;0.8018258999982208;001;FSPG98;2019_Dec_03_1404;iat_vr;60.13268879120423;
3;SCHWACH;negativ;q;0;10;10;4;q;1;0.8145412000012584;001;FSPG98;2019_Dec_03_1404;iat_vr;60.13268879120423;
3;BLUME;Natur;q;0;11;11;12;q;1;0.8653620000004594;001;FSPG98;2019_Dec_03_1404;iat_vr;60.13268879120423;
3;GUT;positiv;p;0;12;12;9;p;1;0.7162944000010611;001;FSPG98;2019_Dec_03_1404;iat_vr;60.13268879120423;
3;LAMPE;Gemacht;p;0;13;13;19;p;1;0.6978321999995387;001;FSPG98;2019_Dec_03_1404;iat_vr;60.13268879120423;
3;COMPUTER;Gemacht;p;0;14;14;18;p;1;0.6485347000016191;001;FSPG98;2019_Dec_03_1404;iat_vr;60.13268879120423;
3;WASSER;Natur;q;0;15;15;11;q;1;0.6519631000010122;001;FSPG98;2019_Dec_03_1404;iat_vr;60.13268879120423;
3;EINWANDFREI;positiv;p;0;16;16;6;p;1;0.9427171999996062;001;FSPG98;2019_Dec_03_1404;iat_vr;60.13268879120423;
3;KLEIDER;Gemacht;p;0;17;17;17;p;1;0.7151848000030441;001;FSPG98;2019_Dec_03_1404;iat_vr;60.13268879120423;
3;GEBÄUDE;Gemacht;p;0;18;18;15;p;1;0.6800500999997894;001;FSPG98;2019_Dec_03_1404;iat_vr;60.13268879120423;
3;HERVORRAGEND;positiv;p;0;19;19;7;p;1;0.6765391000008094;001;FSPG98;2019_Dec_03_1404;iat_vr;60.13268879120423;
;;;;;;;;;;;001;FSPG98;2019_Dec_03_1404;iat_vr;60.13268879120423;
4;AUSGEZEICHNET;positiv;p;0;0;0;5;p;1;0.8896867000003112;001;FSPG98;2019_Dec_03_1404;iat_vr;60.13268879120423;
4;LAMPE;Gemacht;p;0;1;1;19;p;1;1.031970400003047;001;FSPG98;2019_Dec_03_1404;iat_vr;60.13268879120423;
4;KLEIDER;Gemacht;p;0;2;2;17;p;1;0.6464832999990904;001;FSPG98;2019_Dec_03_1404;iat_vr;60.13268879120423;
4;SCHWACH;negativ;q;0;3;3;4;q;1;1.229380200002197;001;FSPG98;2019_Dec_03_1404;iat_vr;60.13268879120423;
4;STEIN;Natur;q;0;4;4;14;q;1;0.7973481000008178;001;FSPG98;2019_Dec_03_1404;iat_vr;60.13268879120423;
4;WASSER;Natur;q;0;5;5;11;q;1;0.5974693000025582;001;FSPG98;2019_Dec_03_1404;iat_vr;60.13268879120423;
4;EINWANDFREI;positiv;p;0;6;6;6;p;1;0.9278885999992781;001;FSPG98;2019_Dec_03_1404;iat_vr;60.13268879120423;
4;NEGATIV;negativ;q;0;7;7;2;q;1;0.7816910000001371;001;FSPG98;2019_Dec_03_1404;iat_vr;60.13268879120423;
4;SCHÄDLICH;negativ;q;0;8;8;3;q;1;0.6823293000015838;001;FSPG98;2019_Dec_03_1404;iat_vr;60.13268879120423;
4;HERVORRAGEND;positiv;p;0;9;9;7;p;1;0.7134544999971695;001;FSPG98;2019_Dec_03_1404;iat_vr;60.13268879120423;
4;GEBÄUDE;Gemacht;p;0;10;10;15;p;1;0.6985332999975071;001;FSPG98;2019_Dec_03_1404;iat_vr;60.13268879120423;
4;TIER;Natur;q;0;11;11;13;q;1;0.5832230999985768;001;FSPG98;2019_Dec_03_1404;iat_vr;60.13268879120423;
4;SCHLIMM;negativ;q;0;12;12;0;q;1;0.7481348000001162;001;FSPG98;2019_Dec_03_1404;iat_vr;60.13268879120423;
4;STADT;Gemacht;p;0;13;13;16;p;1;0.6429521999998542;001;FSPG98;2019_Dec_03_1404;iat_vr;60.13268879120423;
4;SCHLECHT;negativ;q;0;14;14;1;q;1;0.6794921999971848;001;FSPG98;2019_Dec_03_1404;iat_vr;60.13268879120423;
4;COMPUTER;Gemacht;p;0;15;15;18;p;1;0.5969452999997884;001;FSPG98;2019_Dec_03_1404;iat_vr;60.13268879120423;
4;BAUM;Natur;q;0;16;16;10;q;1;0.6156860000010056;001;FSPG98;2019_Dec_03_1404;iat_vr;60.13268879120423;
4;POSITIV;positiv;p;0;17;17;8;p;1;0.6800194999996165;001;FSPG98;2019_Dec_03_1404;iat_vr;60.13268879120423;
4;BLUME;Natur;q;0;18;18;12;q;1;0.7143222000013338;001;FSPG98;2019_Dec_03_1404;iat_vr;60.13268879120423;
4;GUT;positiv;p;0;19;19;9;p;1;0.6985985999999684;001;FSPG98;2019_Dec_03_1404;iat_vr;60.13268879120423;
4;GEBÄUDE;Gemacht;p;1;0;20;15;p;1;0.6147023999983503;001;FSPG98;2019_Dec_03_1404;iat_vr;60.13268879120423;
4;COMPUTER;Gemacht;p;1;1;21;18;p;1;0.6355585000019346;001;FSPG98;2019_Dec_03_1404;iat_vr;60.13268879120423;
4;SCHLECHT;negativ;q;1;2;22;1;q;1;0.681236499996885;001;FSPG98;2019_Dec_03_1404;iat_vr;60.13268879120423;
4;POSITIV;positiv;p;1;3;23;8;p;1;0.6646012000019255;001;FSPG98;2019_Dec_03_1404;iat_vr;60.13268879120423;
4;AUSGEZEICHNET;positiv;p;1;4;24;5;p;1;0.7756544000003487;001;FSPG98;2019_Dec_03_1404;iat_vr;60.13268879120423;
4;STADT;Gemacht;p;1;5;25;16;p;1;1.0476417999998375;001;FSPG98;2019_Dec_03_1404;iat_vr;60.13268879120423;
4;SCHWACH;negativ;q;1;6;26;4;q;1;1.0140687999992224;001;FSPG98;2019_Dec_03_1404;iat_vr;60.13268879120423;
4;WASSER;Natur;q;1;7;27;11;q;1;0.6835347000014735;001;FSPG98;2019_Dec_03_1404;iat_vr;60.13268879120423;
4;STEIN;Natur;q;1;8;28;14;q;1;0.6165538999994169;001;FSPG98;2019_Dec_03_1404;iat_vr;60.13268879120423;
4;KLEIDER;Gemacht;p;1;9;29;17;p;1;0.6816077999974368;001;FSPG98;2019_Dec_03_1404;iat_vr;60.13268879120423;
4;NEGATIV;negativ;q;1;10;30;2;q;1;0.8644634999982372;001;FSPG98;2019_Dec_03_1404;iat_vr;60.13268879120423;
4;GUT;positiv;p;1;11;31;9;p;1;0.5828467999999702;001;FSPG98;2019_Dec_03_1404;iat_vr;60.13268879120423;
4;SCHLIMM;negativ;q;1;12;32;0;q;1;0.7968505000026198;001;FSPG98;2019_Dec_03_1404;iat_vr;60.13268879120423;
4;BAUM;Natur;q;1;13;33;10;q;1;0.8495696000027237;001;FSPG98;2019_Dec_03_1404;iat_vr;60.13268879120423;
4;EINWANDFREI;positiv;p;1;14;34;6;p;1;0.895158100000117;001;FSPG98;2019_Dec_03_1404;iat_vr;60.13268879120423;
4;HERVORRAGEND;positiv;p;1;15;35;7;p;1;0.6522965000003751;001;FSPG98;2019_Dec_03_1404;iat_vr;60.13268879120423;
4;SCHÄDLICH;negativ;q;1;16;36;3;q;1;0.7119936999988568;001;FSPG98;2019_Dec_03_1404;iat_vr;60.13268879120423;
4;BLUME;Natur;q;1;17;37;12;q;1;0.794539700000314;001;FSPG98;2019_Dec_03_1404;iat_vr;60.13268879120423;
4;LAMPE;Gemacht;p;1;18;38;19;p;1;0.914989400000195;001;FSPG98;2019_Dec_03_1404;iat_vr;60.13268879120423;
4;TIER;Natur;q;1;19;39;13;q;1;0.5971967000004952;001;FSPG98;2019_Dec_03_1404;iat_vr;60.13268879120423;
;;;;;;;;;;;001;FSPG98;2019_Dec_03_1404;iat_vr;60.13268879120423;
5;BAUM;Natur;p;0;0;0;0;p;1;1.646568299998762;001;FSPG98;2019_Dec_03_1404;iat_vr;60.13268879120423;
5;WASSER;Natur;p;0;1;1;1;p;1;0.6147194000004674;001;FSPG98;2019_Dec_03_1404;iat_vr;60.13268879120423;
5;LAMPE;Gemacht;q;0;2;2;9;q;1;0.7133780000003753;001;FSPG98;2019_Dec_03_1404;iat_vr;60.13268879120423;
5;BLUME;Natur;p;0;3;3;2;p;1;0.6484713999998348;001;FSPG98;2019_Dec_03_1404;iat_vr;60.13268879120423;
5;STADT;Gemacht;q;0;4;4;6;q;1;0.666043900000659;001;FSPG98;2019_Dec_03_1404;iat_vr;60.13268879120423;
5;KLEIDER;Gemacht;q;0;5;5;7;q;1;0.8967382999981055;001;FSPG98;2019_Dec_03_1404;iat_vr;60.13268879120423;
5;STEIN;Natur;p;0;6;6;4;p;1;0.68008109999937;001;FSPG98;2019_Dec_03_1404;iat_vr;60.13268879120423;
5;TIER;Natur;p;0;7;7;3;p;1;0.6161812999998801;001;FSPG98;2019_Dec_03_1404;iat_vr;60.13268879120423;
5;COMPUTER;Gemacht;q;0;8;8;8;q;1;0.6472228999991785;001;FSPG98;2019_Dec_03_1404;iat_vr;60.13268879120423;
5;GEBÄUDE;Gemacht;q;0;9;9;5;q;1;0.6954888999971445;001;FSPG98;2019_Dec_03_1404;iat_vr;60.13268879120423;
5;GEBÄUDE;Gemacht;q;1;0;10;5;q;1;0.6507635999987542;001;FSPG98;2019_Dec_03_1404;iat_vr;60.13268879120423;
5;LAMPE;Gemacht;q;1;1;11;9;q;1;0.6649120000001858;001;FSPG98;2019_Dec_03_1404;iat_vr;60.13268879120423;
5;COMPUTER;Gemacht;q;1;2;12;8;q;1;0.6809036999984528;001;FSPG98;2019_Dec_03_1404;iat_vr;60.13268879120423;
5;WASSER;Natur;p;1;3;13;1;p;1;0.6983870999974897;001;FSPG98;2019_Dec_03_1404;iat_vr;60.13268879120423;
5;BAUM;Natur;p;1;4;14;0;p;1;0.6329990999984147;001;FSPG98;2019_Dec_03_1404;iat_vr;60.13268879120423;
5;TIER;Natur;p;1;5;15;3;p;1;0.6000058999998146;001;FSPG98;2019_Dec_03_1404;iat_vr;60.13268879120423;
5;KLEIDER;Gemacht;q;1;6;16;7;q;1;0.6480407999988529;001;FSPG98;2019_Dec_03_1404;iat_vr;60.13268879120423;
5;STEIN;Natur;p;1;7;17;4;p;1;0.698932600000262;001;FSPG98;2019_Dec_03_1404;iat_vr;60.13268879120423;
5;BLUME;Natur;p;1;8;18;2;p;1;0.5644202000003133;001;FSPG98;2019_Dec_03_1404;iat_vr;60.13268879120423;
5;STADT;Gemacht;q;1;9;19;6;q;1;0.5353028000026825;001;FSPG98;2019_Dec_03_1404;iat_vr;60.13268879120423;
;;;;;;;;;;;001;FSPG98;2019_Dec_03_1404;iat_vr;60.13268879120423;
6;LAMPE;Gemacht;q;0;0;0;9;q;1;1.2751537000003736;001;FSPG98;2019_Dec_03_1404;iat_vr;60.13268879120423;
6;GEBÄUDE;Gemacht;q;0;1;1;5;q;1;0.7282707999984268;001;FSPG98;2019_Dec_03_1404;iat_vr;60.13268879120423;
6;BAUM;Natur;p;0;2;2;0;p;1;1.3319369000018924;001;FSPG98;2019_Dec_03_1404;iat_vr;60.13268879120423;
6;NEGATIV;negativ;q;0;3;3;12;q;1;0.9154256999972858;001;FSPG98;2019_Dec_03_1404;iat_vr;60.13268879120423;
6;BLUME;Natur;p;0;4;4;2;p;1;0.7305694999995467;001;FSPG98;2019_Dec_03_1404;iat_vr;60.13268879120423;
6;SCHLECHT;negativ;q;0;5;5;11;q;1;0.629077800000232;001;FSPG98;2019_Dec_03_1404;iat_vr;60.13268879120423;
6;STEIN;Natur;p;0;6;6;4;p;1;0.7327733999991324;001;FSPG98;2019_Dec_03_1404;iat_vr;60.13268879120423;
6;KLEIDER;Gemacht;q;0;7;7;7;q;1;0.714214700001321;001;FSPG98;2019_Dec_03_1404;iat_vr;60.13268879120423;
6;EINWANDFREI;positiv;p;0;8;8;16;p;1;0.8291639000017312;001;FSPG98;2019_Dec_03_1404;iat_vr;60.13268879120423;
6;SCHLIMM;negativ;q;0;9;9;10;q;1;0.7650329999996757;001;FSPG98;2019_Dec_03_1404;iat_vr;60.13268879120423;
6;WASSER;Natur;p;0;10;10;1;p;1;0.6306148000003304;001;FSPG98;2019_Dec_03_1404;iat_vr;60.13268879120423;
6;STADT;Gemacht;q;0;11;11;6;q;1;0.6987993000002461;001;FSPG98;2019_Dec_03_1404;iat_vr;60.13268879120423;
6;AUSGEZEICHNET;positiv;p;0;12;12;15;p;1;0.6684165999977267;001;FSPG98;2019_Dec_03_1404;iat_vr;60.13268879120423;
6;GUT;positiv;p;0;13;13;19;p;1;0.8324639999991632;001;FSPG98;2019_Dec_03_1404;iat_vr;60.13268879120423;
6;SCHWACH;negativ;q;0;14;14;14;q;1;0.7475559999984398;001;FSPG98;2019_Dec_03_1404;iat_vr;60.13268879120423;
6;SCHÄDLICH;negativ;q;0;15;15;13;q;1;0.9121326999993471;001;FSPG98;2019_Dec_03_1404;iat_vr;60.13268879120423;
6;COMPUTER;Gemacht;q;0;16;16;8;q;1;0.9644729999999981;001;FSPG98;2019_Dec_03_1404;iat_vr;60.13268879120423;
6;TIER;Natur;p;0;17;17;3;p;1;0.6489464999976917;001;FSPG98;2019_Dec_03_1404;iat_vr;60.13268879120423;
6;POSITIV;positiv;p;0;18;18;18;p;1;0.6651037000010547;001;FSPG98;2019_Dec_03_1404;iat_vr;60.13268879120423;
6;HERVORRAGEND;positiv;p;0;19;19;17;p;1;0.6267521000008855;001;FSPG98;2019_Dec_03_1404;iat_vr;60.13268879120423;
;;;;;;;;;;;001;FSPG98;2019_Dec_03_1404;iat_vr;60.13268879120423;
7;BAUM;Natur;p;0;0;0;0;p;1;3.5226816999966104;001;FSPG98;2019_Dec_03_1404;iat_vr;60.13268879120423;
7;COMPUTER;Gemacht;q;0;1;1;8;q;1;0.63156760000129;001;FSPG98;2019_Dec_03_1404;iat_vr;60.13268879120423;
7;AUSGEZEICHNET;positiv;p;0;2;2;15;p;1;0.609945100000914;001;FSPG98;2019_Dec_03_1404;iat_vr;60.13268879120423;
7;EINWANDFREI;positiv;p;0;3;3;16;p;1;1.3444925999974657;001;FSPG98;2019_Dec_03_1404;iat_vr;60.13268879120423;
7;NEGATIV;negativ;q;0;4;4;12;p;0;0.697395700000925;001;FSPG98;2019_Dec_03_1404;iat_vr;60.13268879120423;
7;TIER;Natur;p;0;5;5;3;p;1;0.8484406000025047;001;FSPG98;2019_Dec_03_1404;iat_vr;60.13268879120423;
7;WASSER;Natur;p;0;6;6;1;p;1;1.9648806000004697;001;FSPG98;2019_Dec_03_1404;iat_vr;60.13268879120423;
7;STADT;Gemacht;q;0;7;7;6;q;1;0.5124973999991198;001;FSPG98;2019_Dec_03_1404;iat_vr;60.13268879120423;
7;POSITIV;positiv;p;0;8;8;18;p;1;0.6310503999993671;001;FSPG98;2019_Dec_03_1404;iat_vr;60.13268879120423;
7;STEIN;Natur;p;0;9;9;4;p;1;0.6485754999994242;001;FSPG98;2019_Dec_03_1404;iat_vr;60.13268879120423;
7;SCHWACH;negativ;q;0;10;10;14;q;1;0.6129441999983101;001;FSPG98;2019_Dec_03_1404;iat_vr;60.13268879120423;
7;SCHÄDLICH;negativ;q;0;11;11;13;q;1;0.7970714999974007;001;FSPG98;2019_Dec_03_1404;iat_vr;60.13268879120423;
7;SCHLIMM;negativ;q;0;12;12;10;q;1;0.6291124999988824;001;FSPG98;2019_Dec_03_1404;iat_vr;60.13268879120423;
7;BLUME;Natur;p;0;13;13;2;p;1;0.5979093999994802;001;FSPG98;2019_Dec_03_1404;iat_vr;60.13268879120423;
7;LAMPE;Gemacht;q;0;14;14;9;q;1;0.8635966000001645;001;FSPG98;2019_Dec_03_1404;iat_vr;60.13268879120423;
7;HERVORRAGEND;positiv;p;0;15;15;17;p;1;0.6974023999973724;001;FSPG98;2019_Dec_03_1404;iat_vr;60.13268879120423;
7;GEBÄUDE;Gemacht;q;0;16;16;5;q;1;0.8634276000011596;001;FSPG98;2019_Dec_03_1404;iat_vr;60.13268879120423;
7;KLEIDER;Gemacht;q;0;17;17;7;q;1;0.6468703999998979;001;FSPG98;2019_Dec_03_1404;iat_vr;60.13268879120423;
7;GUT;positiv;p;0;18;18;19;p;1;0.615453599999455;001;FSPG98;2019_Dec_03_1404;iat_vr;60.13268879120423;
7;SCHLECHT;negativ;q;0;19;19;11;q;1;0.5921075000005658;001;FSPG98;2019_Dec_03_1404;iat_vr;60.13268879120423;
7;HERVORRAGEND;positiv;p;1;0;20;17;p;1;0.6124568999985058;001;FSPG98;2019_Dec_03_1404;iat_vr;60.13268879120423;
7;POSITIV;positiv;p;1;1;21;18;p;1;0.5970562000002246;001;FSPG98;2019_Dec_03_1404;iat_vr;60.13268879120423;
7;SCHLECHT;negativ;q;1;2;22;11;q;1;0.5453988000008394;001;FSPG98;2019_Dec_03_1404;iat_vr;60.13268879120423;
7;SCHLIMM;negativ;q;1;3;23;10;q;1;0.6268143999986933;001;FSPG98;2019_Dec_03_1404;iat_vr;60.13268879120423;
7;KLEIDER;Gemacht;q;1;4;24;7;q;1;0.7309371000010287;001;FSPG98;2019_Dec_03_1404;iat_vr;60.13268879120423;
7;SCHÄDLICH;negativ;q;1;5;25;13;q;1;0.6787795000018377;001;FSPG98;2019_Dec_03_1404;iat_vr;60.13268879120423;
7;WASSER;Natur;p;1;6;26;1;p;1;0.6464727000020503;001;FSPG98;2019_Dec_03_1404;iat_vr;60.13268879120423;
7;BLUME;Natur;p;1;7;27;2;p;1;0.6150460999997449;001;FSPG98;2019_Dec_03_1404;iat_vr;60.13268879120423;
7;STADT;Gemacht;q;1;8;28;6;q;1;0.5817760999998427;001;FSPG98;2019_Dec_03_1404;iat_vr;60.13268879120423;
7;BAUM;Natur;p;1;9;29;0;p;1;1.0480470000002242;001;FSPG98;2019_Dec_03_1404;iat_vr;60.13268879120423;
7;COMPUTER;Gemacht;q;1;10;30;8;q;1;0.6965190000009898;001;FSPG98;2019_Dec_03_1404;iat_vr;60.13268879120423;
7;TIER;Natur;p;1;11;31;3;p;1;0.6146733999994467;001;FSPG98;2019_Dec_03_1404;iat_vr;60.13268879120423;
7;EINWANDFREI;positiv;p;1;12;32;16;p;1;0.6789341000003333;001;FSPG98;2019_Dec_03_1404;iat_vr;60.13268879120423;
7;AUSGEZEICHNET;positiv;p;1;13;33;15;p;1;0.579908499999874;001;FSPG98;2019_Dec_03_1404;iat_vr;60.13268879120423;
7;GEBÄUDE;Gemacht;q;1;14;34;5;q;1;0.6650932999982615;001;FSPG98;2019_Dec_03_1404;iat_vr;60.13268879120423;
7;STEIN;Natur;p;1;15;35;4;p;1;0.7640136000009079;001;FSPG98;2019_Dec_03_1404;iat_vr;60.13268879120423;
7;LAMPE;Gemacht;q;1;16;36;9;q;1;0.7171127000001434;001;FSPG98;2019_Dec_03_1404;iat_vr;60.13268879120423;
7;SCHWACH;negativ;q;1;17;37;14;q;1;1.3471566000007442;001;FSPG98;2019_Dec_03_1404;iat_vr;60.13268879120423;
7;NEGATIV;negativ;q;1;18;38;12;q;1;0.6797640000004321;001;FSPG98;2019_Dec_03_1404;iat_vr;60.13268879120423;
7;GUT;positiv;p;1;19;39;19;p;1;0.49897150000106194;001;FSPG98;2019_Dec_03_1404;iat_vr;60.13268879120423;
;;;;;;;;;;;001;FSPG98;2019_Dec_03_1404;iat_vr;60.13268879120423;
