Block;Word;Category;CorrResp;trials.thisRepN;trials.thisTrialN;trials.thisN;trials.thisIndex;key_resp_2.keys;key_resp_2.corr;key_resp_2.rt;session;participant;date;expName;frameRate;
1;TIER;Natur;q;0;0;0;3;q;1;1.2399240000013378;002;FSPG98;2019_Dec_03_1425;iat_vr;59.90179699327787;
1;KLEIDER;Gemacht;p;0;1;1;7;p;1;0.6276058999974339;002;FSPG98;2019_Dec_03_1425;iat_vr;59.90179699327787;
1;STEIN;Natur;q;0;2;2;4;q;1;0.6685142999995151;002;FSPG98;2019_Dec_03_1425;iat_vr;59.90179699327787;
1;WASSER;Natur;q;0;3;3;1;q;1;0.6924688999970385;002;FSPG98;2019_Dec_03_1425;iat_vr;59.90179699327787;
1;GEBÄUDE;Gemacht;p;0;4;4;5;p;1;0.5707572999999684;002;FSPG98;2019_Dec_03_1425;iat_vr;59.90179699327787;
1;COMPUTER;Gemacht;p;0;5;5;8;p;1;0.5694799999982934;002;FSPG98;2019_Dec_03_1425;iat_vr;59.90179699327787;
1;STADT;Gemacht;p;0;6;6;6;p;1;0.6776952000000165;002;FSPG98;2019_Dec_03_1425;iat_vr;59.90179699327787;
1;BLUME;Natur;q;0;7;7;2;q;1;0.5151842999985092;002;FSPG98;2019_Dec_03_1425;iat_vr;59.90179699327787;
1;BAUM;Natur;q;0;8;8;0;q;1;0.5325542999999016;002;FSPG98;2019_Dec_03_1425;iat_vr;59.90179699327787;
1;LAMPE;Gemacht;p;0;9;9;9;p;1;0.5684729999993579;002;FSPG98;2019_Dec_03_1425;iat_vr;59.90179699327787;
1;STEIN;Natur;q;1;0;10;4;q;1;0.5651842999977816;002;FSPG98;2019_Dec_03_1425;iat_vr;59.90179699327787;
1;GEBÄUDE;Gemacht;p;1;1;11;5;p;1;0.5822974000002432;002;FSPG98;2019_Dec_03_1425;iat_vr;59.90179699327787;
1;WASSER;Natur;q;1;2;12;1;q;1;0.5173082000001159;002;FSPG98;2019_Dec_03_1425;iat_vr;59.90179699327787;
1;BLUME;Natur;q;1;3;13;2;q;1;0.5982060999995156;002;FSPG98;2019_Dec_03_1425;iat_vr;59.90179699327787;
1;BAUM;Natur;q;1;4;14;0;q;1;0.598956800000451;002;FSPG98;2019_Dec_03_1425;iat_vr;59.90179699327787;
1;TIER;Natur;q;1;5;15;3;q;1;0.5448957000007795;002;FSPG98;2019_Dec_03_1425;iat_vr;59.90179699327787;
1;LAMPE;Gemacht;p;1;6;16;9;p;1;0.5655860000006214;002;FSPG98;2019_Dec_03_1425;iat_vr;59.90179699327787;
1;COMPUTER;Gemacht;p;1;7;17;8;p;1;0.48176320000129635;002;FSPG98;2019_Dec_03_1425;iat_vr;59.90179699327787;
1;KLEIDER;Gemacht;p;1;8;18;7;p;1;0.6458385999976599;002;FSPG98;2019_Dec_03_1425;iat_vr;59.90179699327787;
1;STADT;Gemacht;p;1;9;19;6;p;1;0.5452203999993799;002;FSPG98;2019_Dec_03_1425;iat_vr;59.90179699327787;
;;;;;;;;;;;002;FSPG98;2019_Dec_03_1425;iat_vr;59.90179699327787;
2;POSITIV;positiv;p;0;0;0;8;p;1;0.8986618000017188;002;FSPG98;2019_Dec_03_1425;iat_vr;59.90179699327787;
2;AUSGEZEICHNET;positiv;p;0;1;1;5;p;1;0.5835512000012386;002;FSPG98;2019_Dec_03_1425;iat_vr;59.90179699327787;
2;SCHÄDLICH;negativ;q;0;2;2;3;q;1;0.6129986999985704;002;FSPG98;2019_Dec_03_1425;iat_vr;59.90179699327787;
2;HERVORRAGEND;positiv;p;0;3;3;7;p;1;0.8795301999998628;002;FSPG98;2019_Dec_03_1425;iat_vr;59.90179699327787;
2;GUT;positiv;p;0;4;4;9;p;1;0.5320143000026292;002;FSPG98;2019_Dec_03_1425;iat_vr;59.90179699327787;
2;SCHWACH;negativ;q;0;5;5;4;q;1;0.762273099997401;002;FSPG98;2019_Dec_03_1425;iat_vr;59.90179699327787;
2;SCHLIMM;negativ;q;0;6;6;0;q;1;0.6131572999984201;002;FSPG98;2019_Dec_03_1425;iat_vr;59.90179699327787;
2;NEGATIV;negativ;q;0;7;7;2;q;1;0.6134984000018449;002;FSPG98;2019_Dec_03_1425;iat_vr;59.90179699327787;
2;SCHLECHT;negativ;q;0;8;8;1;q;1;0.6133383000014874;002;FSPG98;2019_Dec_03_1425;iat_vr;59.90179699327787;
2;EINWANDFREI;positiv;p;0;9;9;6;p;1;0.6930461000010837;002;FSPG98;2019_Dec_03_1425;iat_vr;59.90179699327787;
2;EINWANDFREI;positiv;p;1;0;10;6;p;1;0.6178933999981382;002;FSPG98;2019_Dec_03_1425;iat_vr;59.90179699327787;
2;HERVORRAGEND;positiv;p;1;1;11;7;p;1;0.5968279999979131;002;FSPG98;2019_Dec_03_1425;iat_vr;59.90179699327787;
2;GUT;positiv;p;1;2;12;9;p;1;0.5192153999996663;002;FSPG98;2019_Dec_03_1425;iat_vr;59.90179699327787;
2;SCHLECHT;negativ;q;1;3;13;1;q;1;0.7141512999987754;002;FSPG98;2019_Dec_03_1425;iat_vr;59.90179699327787;
2;AUSGEZEICHNET;positiv;p;1;4;14;5;p;1;0.6958239999985381;002;FSPG98;2019_Dec_03_1425;iat_vr;59.90179699327787;
2;SCHLIMM;negativ;q;1;5;15;0;q;1;0.611522100000002;002;FSPG98;2019_Dec_03_1425;iat_vr;59.90179699327787;
2;NEGATIV;negativ;q;1;6;16;2;q;1;0.6436701999991783;002;FSPG98;2019_Dec_03_1425;iat_vr;59.90179699327787;
2;POSITIV;positiv;p;1;7;17;8;p;1;0.7147287999978289;002;FSPG98;2019_Dec_03_1425;iat_vr;59.90179699327787;
2;SCHWACH;negativ;q;1;8;18;4;q;1;0.5963534000002255;002;FSPG98;2019_Dec_03_1425;iat_vr;59.90179699327787;
2;SCHÄDLICH;negativ;q;1;9;19;3;q;1;0.8470180999975128;002;FSPG98;2019_Dec_03_1425;iat_vr;59.90179699327787;
;;;;;;;;;;;002;FSPG98;2019_Dec_03_1425;iat_vr;59.90179699327787;
3;SCHWACH;negativ;q;0;0;0;4;q;1;1.1135729000016;002;FSPG98;2019_Dec_03_1425;iat_vr;59.90179699327787;
3;WASSER;Natur;q;0;1;1;11;q;1;0.6658261000011407;002;FSPG98;2019_Dec_03_1425;iat_vr;59.90179699327787;
3;GUT;positiv;p;0;2;2;9;p;1;0.8650084999972023;002;FSPG98;2019_Dec_03_1425;iat_vr;59.90179699327787;
3;BAUM;Natur;q;0;3;3;10;q;1;0.7496995999972569;002;FSPG98;2019_Dec_03_1425;iat_vr;59.90179699327787;
3;EINWANDFREI;positiv;p;0;4;4;6;p;1;0.7525896000006469;002;FSPG98;2019_Dec_03_1425;iat_vr;59.90179699327787;
3;NEGATIV;negativ;q;0;5;5;2;q;1;0.7458762000023853;002;FSPG98;2019_Dec_03_1425;iat_vr;59.90179699327787;
3;GEBÄUDE;Gemacht;p;0;6;6;15;p;1;0.6975878999983252;002;FSPG98;2019_Dec_03_1425;iat_vr;59.90179699327787;
3;BLUME;Natur;q;0;7;7;12;q;1;0.6838035000000673;002;FSPG98;2019_Dec_03_1425;iat_vr;59.90179699327787;
3;KLEIDER;Gemacht;p;0;8;8;17;p;1;0.6817991999996593;002;FSPG98;2019_Dec_03_1425;iat_vr;59.90179699327787;
3;SCHLECHT;negativ;q;0;9;9;1;q;1;0.984797900000558;002;FSPG98;2019_Dec_03_1425;iat_vr;59.90179699327787;
3;TIER;Natur;q;0;10;10;13;q;1;0.668038499999966;002;FSPG98;2019_Dec_03_1425;iat_vr;59.90179699327787;
3;AUSGEZEICHNET;positiv;p;0;11;11;5;p;1;0.7259602000012819;002;FSPG98;2019_Dec_03_1425;iat_vr;59.90179699327787;
3;POSITIV;positiv;p;0;12;12;8;p;1;1.0136301999991701;002;FSPG98;2019_Dec_03_1425;iat_vr;59.90179699327787;
3;STEIN;Natur;q;0;13;13;14;q;1;0.7322072000024491;002;FSPG98;2019_Dec_03_1425;iat_vr;59.90179699327787;
3;SCHLIMM;negativ;q;0;14;14;0;q;1;0.8143851999993785;002;FSPG98;2019_Dec_03_1425;iat_vr;59.90179699327787;
3;LAMPE;Gemacht;p;0;15;15;19;p;1;0.6994319000004907;002;FSPG98;2019_Dec_03_1425;iat_vr;59.90179699327787;
3;HERVORRAGEND;positiv;p;0;16;16;7;p;1;0.7807811999991827;002;FSPG98;2019_Dec_03_1425;iat_vr;59.90179699327787;
3;STADT;Gemacht;p;0;17;17;16;p;1;0.6435988000012003;002;FSPG98;2019_Dec_03_1425;iat_vr;59.90179699327787;
3;COMPUTER;Gemacht;p;0;18;18;18;p;1;0.630087800000183;002;FSPG98;2019_Dec_03_1425;iat_vr;59.90179699327787;
3;SCHÄDLICH;negativ;q;0;19;19;3;q;1;0.7641452999996545;002;FSPG98;2019_Dec_03_1425;iat_vr;59.90179699327787;
;;;;;;;;;;;002;FSPG98;2019_Dec_03_1425;iat_vr;59.90179699327787;
4;COMPUTER;Gemacht;p;0;0;0;18;p;1;2.3783494000017527;002;FSPG98;2019_Dec_03_1425;iat_vr;59.90179699327787;
4;BAUM;Natur;q;0;1;1;10;q;1;0.9477957000017341;002;FSPG98;2019_Dec_03_1425;iat_vr;59.90179699327787;
4;GEBÄUDE;Gemacht;p;0;2;2;15;p;1;0.711463299998286;002;FSPG98;2019_Dec_03_1425;iat_vr;59.90179699327787;
4;EINWANDFREI;positiv;p;0;3;3;6;p;1;0.6961088999996718;002;FSPG98;2019_Dec_03_1425;iat_vr;59.90179699327787;
4;WASSER;Natur;q;0;4;4;11;q;1;0.7341462000003958;002;FSPG98;2019_Dec_03_1425;iat_vr;59.90179699327787;
4;LAMPE;Gemacht;p;0;5;5;19;p;1;0.6487206999991031;002;FSPG98;2019_Dec_03_1425;iat_vr;59.90179699327787;
4;HERVORRAGEND;positiv;p;0;6;6;7;p;1;0.8655811000026006;002;FSPG98;2019_Dec_03_1425;iat_vr;59.90179699327787;
4;SCHLECHT;negativ;q;0;7;7;1;q;1;0.7280385999983991;002;FSPG98;2019_Dec_03_1425;iat_vr;59.90179699327787;
4;SCHWACH;negativ;q;0;8;8;4;q;1;0.7485390000001644;002;FSPG98;2019_Dec_03_1425;iat_vr;59.90179699327787;
4;AUSGEZEICHNET;positiv;p;0;9;9;5;p;1;0.6106287999973574;002;FSPG98;2019_Dec_03_1425;iat_vr;59.90179699327787;
4;SCHÄDLICH;negativ;q;0;10;10;3;q;1;0.8631229000020539;002;FSPG98;2019_Dec_03_1425;iat_vr;59.90179699327787;
4;GUT;positiv;p;0;11;11;9;p;1;0.6154401999992842;002;FSPG98;2019_Dec_03_1425;iat_vr;59.90179699327787;
4;SCHLIMM;negativ;q;0;12;12;0;q;1;0.6687440000023344;002;FSPG98;2019_Dec_03_1425;iat_vr;59.90179699327787;
4;NEGATIV;negativ;q;0;13;13;2;q;1;0.6474831000014092;002;FSPG98;2019_Dec_03_1425;iat_vr;59.90179699327787;
4;POSITIV;positiv;p;0;14;14;8;p;1;0.6454245999993873;002;FSPG98;2019_Dec_03_1425;iat_vr;59.90179699327787;
4;KLEIDER;Gemacht;p;0;15;15;17;p;1;0.8136435000014899;002;FSPG98;2019_Dec_03_1425;iat_vr;59.90179699327787;
4;STADT;Gemacht;p;0;16;16;16;p;1;0.6649611000029836;002;FSPG98;2019_Dec_03_1425;iat_vr;59.90179699327787;
4;BLUME;Natur;q;0;17;17;12;q;1;0.6480475999996997;002;FSPG98;2019_Dec_03_1425;iat_vr;59.90179699327787;
4;STEIN;Natur;q;0;18;18;14;q;1;0.5988504999986617;002;FSPG98;2019_Dec_03_1425;iat_vr;59.90179699327787;
4;TIER;Natur;q;0;19;19;13;q;1;0.6166931000007025;002;FSPG98;2019_Dec_03_1425;iat_vr;59.90179699327787;
4;SCHÄDLICH;negativ;q;1;0;20;3;q;1;0.6635158999997657;002;FSPG98;2019_Dec_03_1425;iat_vr;59.90179699327787;
4;NEGATIV;negativ;q;1;1;21;2;q;1;0.613521999999648;002;FSPG98;2019_Dec_03_1425;iat_vr;59.90179699327787;
4;AUSGEZEICHNET;positiv;p;1;2;22;5;p;1;0.6605640000016137;002;FSPG98;2019_Dec_03_1425;iat_vr;59.90179699327787;
4;BLUME;Natur;q;1;3;23;12;q;1;0.5991853000014089;002;FSPG98;2019_Dec_03_1425;iat_vr;59.90179699327787;
4;EINWANDFREI;positiv;p;1;4;24;6;p;1;0.7105985999987752;002;FSPG98;2019_Dec_03_1425;iat_vr;59.90179699327787;
4;KLEIDER;Gemacht;p;1;5;25;17;p;1;0.8649412000013399;002;FSPG98;2019_Dec_03_1425;iat_vr;59.90179699327787;
4;TIER;Natur;q;1;6;26;13;q;1;0.5660138999992341;002;FSPG98;2019_Dec_03_1425;iat_vr;59.90179699327787;
4;STEIN;Natur;q;1;7;27;14;q;1;0.5979354000010062;002;FSPG98;2019_Dec_03_1425;iat_vr;59.90179699327787;
4;GUT;positiv;p;1;8;28;9;p;1;0.701392200000555;002;FSPG98;2019_Dec_03_1425;iat_vr;59.90179699327787;
4;LAMPE;Gemacht;p;1;9;29;19;p;1;0.7783218000004126;002;FSPG98;2019_Dec_03_1425;iat_vr;59.90179699327787;
4;SCHWACH;negativ;q;1;10;30;4;q;1;0.5976012999999512;002;FSPG98;2019_Dec_03_1425;iat_vr;59.90179699327787;
4;COMPUTER;Gemacht;p;1;11;31;18;p;1;0.5981438999988313;002;FSPG98;2019_Dec_03_1425;iat_vr;59.90179699327787;
4;HERVORRAGEND;positiv;p;1;12;32;7;p;1;0.6662410999997519;002;FSPG98;2019_Dec_03_1425;iat_vr;59.90179699327787;
4;SCHLECHT;negativ;q;1;13;33;1;q;1;0.6148427000007359;002;FSPG98;2019_Dec_03_1425;iat_vr;59.90179699327787;
4;BAUM;Natur;q;1;14;34;10;q;1;0.5645370000020193;002;FSPG98;2019_Dec_03_1425;iat_vr;59.90179699327787;
4;GEBÄUDE;Gemacht;p;1;15;35;15;p;1;0.6306818000011845;002;FSPG98;2019_Dec_03_1425;iat_vr;59.90179699327787;
4;WASSER;Natur;q;1;16;36;11;q;1;0.9964947999978904;002;FSPG98;2019_Dec_03_1425;iat_vr;59.90179699327787;
4;POSITIV;positiv;p;1;17;37;8;p;1;0.9912690000019211;002;FSPG98;2019_Dec_03_1425;iat_vr;59.90179699327787;
4;STADT;Gemacht;p;1;18;38;16;p;1;0.5855515999974159;002;FSPG98;2019_Dec_03_1425;iat_vr;59.90179699327787;
4;SCHLIMM;negativ;q;1;19;39;0;q;1;0.7141124999980093;002;FSPG98;2019_Dec_03_1425;iat_vr;59.90179699327787;
;;;;;;;;;;;002;FSPG98;2019_Dec_03_1425;iat_vr;59.90179699327787;
5;WASSER;Natur;p;0;0;0;1;p;1;1.4427861000003759;002;FSPG98;2019_Dec_03_1425;iat_vr;59.90179699327787;
5;STEIN;Natur;p;0;1;1;4;p;1;0.7202278000004299;002;FSPG98;2019_Dec_03_1425;iat_vr;59.90179699327787;
5;LAMPE;Gemacht;q;0;2;2;9;q;1;0.7825053000015032;002;FSPG98;2019_Dec_03_1425;iat_vr;59.90179699327787;
5;STADT;Gemacht;q;0;3;3;6;q;1;0.7196115000006102;002;FSPG98;2019_Dec_03_1425;iat_vr;59.90179699327787;
5;GEBÄUDE;Gemacht;q;0;4;4;5;q;1;0.7147442000023148;002;FSPG98;2019_Dec_03_1425;iat_vr;59.90179699327787;
5;BAUM;Natur;p;0;5;5;0;p;1;0.6153349999985949;002;FSPG98;2019_Dec_03_1425;iat_vr;59.90179699327787;
5;BLUME;Natur;p;0;6;6;2;p;1;0.6028087000013329;002;FSPG98;2019_Dec_03_1425;iat_vr;59.90179699327787;
5;COMPUTER;Gemacht;q;0;7;7;8;q;1;0.6482298000009905;002;FSPG98;2019_Dec_03_1425;iat_vr;59.90179699327787;
5;TIER;Natur;p;0;8;8;3;p;1;0.6307086000015261;002;FSPG98;2019_Dec_03_1425;iat_vr;59.90179699327787;
5;KLEIDER;Gemacht;q;0;9;9;7;q;1;0.6984021999996912;002;FSPG98;2019_Dec_03_1425;iat_vr;59.90179699327787;
5;WASSER;Natur;p;1;0;10;1;p;1;0.7436444999984815;002;FSPG98;2019_Dec_03_1425;iat_vr;59.90179699327787;
5;BLUME;Natur;p;1;1;11;2;p;1;0.4963198999976157;002;FSPG98;2019_Dec_03_1425;iat_vr;59.90179699327787;
5;TIER;Natur;p;1;2;12;3;p;1;0.4988444000009622;002;FSPG98;2019_Dec_03_1425;iat_vr;59.90179699327787;
5;KLEIDER;Gemacht;q;1;3;13;7;q;1;0.5669625000009546;002;FSPG98;2019_Dec_03_1425;iat_vr;59.90179699327787;
5;STADT;Gemacht;q;1;4;14;6;q;1;0.6137711999981548;002;FSPG98;2019_Dec_03_1425;iat_vr;59.90179699327787;
5;GEBÄUDE;Gemacht;q;1;5;15;5;q;1;0.5645977999993192;002;FSPG98;2019_Dec_03_1425;iat_vr;59.90179699327787;
5;COMPUTER;Gemacht;q;1;6;16;8;q;1;0.5182461999975203;002;FSPG98;2019_Dec_03_1425;iat_vr;59.90179699327787;
5;STEIN;Natur;p;1;7;17;4;p;1;0.5320470000006026;002;FSPG98;2019_Dec_03_1425;iat_vr;59.90179699327787;
5;BAUM;Natur;p;1;8;18;0;p;1;0.4988904000019829;002;FSPG98;2019_Dec_03_1425;iat_vr;59.90179699327787;
5;LAMPE;Gemacht;q;1;9;19;9;q;1;0.6978357000007236;002;FSPG98;2019_Dec_03_1425;iat_vr;59.90179699327787;
;;;;;;;;;;;002;FSPG98;2019_Dec_03_1425;iat_vr;59.90179699327787;
6;NEGATIV;negativ;q;0;0;0;12;q;1;0.860586399998283;002;FSPG98;2019_Dec_03_1425;iat_vr;59.90179699327787;
6;GEBÄUDE;Gemacht;q;0;1;1;5;q;1;1.5976614999999583;002;FSPG98;2019_Dec_03_1425;iat_vr;59.90179699327787;
6;BAUM;Natur;p;0;2;2;0;p;1;0.8155982999996922;002;FSPG98;2019_Dec_03_1425;iat_vr;59.90179699327787;
6;WASSER;Natur;p;0;3;3;1;p;1;0.6183705000003101;002;FSPG98;2019_Dec_03_1425;iat_vr;59.90179699327787;
6;EINWANDFREI;positiv;p;0;4;4;16;p;1;0.6607051999999385;002;FSPG98;2019_Dec_03_1425;iat_vr;59.90179699327787;
6;SCHLIMM;negativ;q;0;5;5;10;q;1;0.5951906999980565;002;FSPG98;2019_Dec_03_1425;iat_vr;59.90179699327787;
6;BLUME;Natur;p;0;6;6;2;p;1;0.7825396999978693;002;FSPG98;2019_Dec_03_1425;iat_vr;59.90179699327787;
6;COMPUTER;Gemacht;q;0;7;7;8;q;1;0.6536624000000302;002;FSPG98;2019_Dec_03_1425;iat_vr;59.90179699327787;
6;LAMPE;Gemacht;q;0;8;8;9;q;1;0.7322161000010965;002;FSPG98;2019_Dec_03_1425;iat_vr;59.90179699327787;
6;SCHÄDLICH;negativ;q;0;9;9;13;q;1;0.6120527000020957;002;FSPG98;2019_Dec_03_1425;iat_vr;59.90179699327787;
6;KLEIDER;Gemacht;q;0;10;10;7;q;1;0.7794493000001239;002;FSPG98;2019_Dec_03_1425;iat_vr;59.90179699327787;
6;SCHWACH;negativ;q;0;11;11;14;q;1;0.6956802000022435;002;FSPG98;2019_Dec_03_1425;iat_vr;59.90179699327787;
6;STADT;Gemacht;q;0;12;12;6;q;1;0.5905932000023313;002;FSPG98;2019_Dec_03_1425;iat_vr;59.90179699327787;
6;STEIN;Natur;p;0;13;13;4;p;1;0.5593040000021574;002;FSPG98;2019_Dec_03_1425;iat_vr;59.90179699327787;
6;SCHLECHT;negativ;q;0;14;14;11;q;1;0.5786986999992223;002;FSPG98;2019_Dec_03_1425;iat_vr;59.90179699327787;
6;AUSGEZEICHNET;positiv;p;0;15;15;15;p;1;0.5420301999984076;002;FSPG98;2019_Dec_03_1425;iat_vr;59.90179699327787;
6;TIER;Natur;p;0;16;16;3;p;1;0.5825832999980776;002;FSPG98;2019_Dec_03_1425;iat_vr;59.90179699327787;
6;HERVORRAGEND;positiv;p;0;17;17;17;p;1;0.6447485000026063;002;FSPG98;2019_Dec_03_1425;iat_vr;59.90179699327787;
6;POSITIV;positiv;p;0;18;18;18;p;1;0.5194848999999522;002;FSPG98;2019_Dec_03_1425;iat_vr;59.90179699327787;
6;GUT;positiv;p;0;19;19;19;p;1;0.5154211999979452;002;FSPG98;2019_Dec_03_1425;iat_vr;59.90179699327787;
;;;;;;;;;;;002;FSPG98;2019_Dec_03_1425;iat_vr;59.90179699327787;
7;COMPUTER;Gemacht;q;0;0;0;8;q;1;0.8120646999996097;002;FSPG98;2019_Dec_03_1425;iat_vr;59.90179699327787;
7;GUT;positiv;p;0;1;1;19;p;1;0.6154062999994494;002;FSPG98;2019_Dec_03_1425;iat_vr;59.90179699327787;
7;WASSER;Natur;p;0;2;2;1;p;1;0.781649099997594;002;FSPG98;2019_Dec_03_1425;iat_vr;59.90179699327787;
7;TIER;Natur;p;0;3;3;3;p;1;0.5157355999981519;002;FSPG98;2019_Dec_03_1425;iat_vr;59.90179699327787;
7;STADT;Gemacht;q;0;4;4;6;q;1;0.5310477999992145;002;FSPG98;2019_Dec_03_1425;iat_vr;59.90179699327787;
7;KLEIDER;Gemacht;q;0;5;5;7;q;1;0.7625114000002213;002;FSPG98;2019_Dec_03_1425;iat_vr;59.90179699327787;
7;NEGATIV;negativ;q;0;6;6;12;q;1;0.7141830000000482;002;FSPG98;2019_Dec_03_1425;iat_vr;59.90179699327787;
7;BAUM;Natur;p;0;7;7;0;p;1;0.6451047000009567;002;FSPG98;2019_Dec_03_1425;iat_vr;59.90179699327787;
7;GEBÄUDE;Gemacht;q;0;8;8;5;q;1;0.5965133999998216;002;FSPG98;2019_Dec_03_1425;iat_vr;59.90179699327787;
7;STEIN;Natur;p;0;9;9;4;p;1;0.6156508999993093;002;FSPG98;2019_Dec_03_1425;iat_vr;59.90179699327787;
7;AUSGEZEICHNET;positiv;p;0;10;10;15;p;1;0.5659841999986384;002;FSPG98;2019_Dec_03_1425;iat_vr;59.90179699327787;
7;POSITIV;positiv;p;0;11;11;18;p;1;0.5983358000012231;002;FSPG98;2019_Dec_03_1425;iat_vr;59.90179699327787;
7;EINWANDFREI;positiv;p;0;12;12;16;p;1;0.6601203999998688;002;FSPG98;2019_Dec_03_1425;iat_vr;59.90179699327787;
7;SCHLECHT;negativ;q;0;13;13;11;q;1;0.7983201999995799;002;FSPG98;2019_Dec_03_1425;iat_vr;59.90179699327787;
7;BLUME;Natur;p;0;14;14;2;p;1;0.8495921000030648;002;FSPG98;2019_Dec_03_1425;iat_vr;59.90179699327787;
7;SCHWACH;negativ;q;0;15;15;14;q;1;0.9184834000006958;002;FSPG98;2019_Dec_03_1425;iat_vr;59.90179699327787;
7;LAMPE;Gemacht;q;0;16;16;9;q;1;0.6685160000015458;002;FSPG98;2019_Dec_03_1425;iat_vr;59.90179699327787;
7;SCHÄDLICH;negativ;q;0;17;17;13;q;1;0.6755315999980667;002;FSPG98;2019_Dec_03_1425;iat_vr;59.90179699327787;
7;SCHLIMM;negativ;q;0;18;18;10;q;1;0.5336023999989266;002;FSPG98;2019_Dec_03_1425;iat_vr;59.90179699327787;
7;HERVORRAGEND;positiv;p;0;19;19;17;p;1;0.5966420000004291;002;FSPG98;2019_Dec_03_1425;iat_vr;59.90179699327787;
7;GEBÄUDE;Gemacht;q;1;0;20;5;q;1;0.613215900000796;002;FSPG98;2019_Dec_03_1425;iat_vr;59.90179699327787;
7;SCHLIMM;negativ;q;1;1;21;10;q;1;0.5448359000001801;002;FSPG98;2019_Dec_03_1425;iat_vr;59.90179699327787;
7;GUT;positiv;p;1;2;22;19;p;1;0.44983489999867743;002;FSPG98;2019_Dec_03_1425;iat_vr;59.90179699327787;
7;COMPUTER;Gemacht;q;1;3;23;8;q;1;0.5814573999996355;002;FSPG98;2019_Dec_03_1425;iat_vr;59.90179699327787;
7;LAMPE;Gemacht;q;1;4;24;9;q;1;0.5478485999992699;002;FSPG98;2019_Dec_03_1425;iat_vr;59.90179699327787;
7;STADT;Gemacht;q;1;5;25;6;q;1;0.564146199998504;002;FSPG98;2019_Dec_03_1425;iat_vr;59.90179699327787;
7;AUSGEZEICHNET;positiv;p;1;6;26;15;p;1;0.49325669999961974;002;FSPG98;2019_Dec_03_1425;iat_vr;59.90179699327787;
7;TIER;Natur;p;1;7;27;3;p;1;0.5155400000003283;002;FSPG98;2019_Dec_03_1425;iat_vr;59.90179699327787;
7;STEIN;Natur;p;1;8;28;4;p;1;0.5307627999973192;002;FSPG98;2019_Dec_03_1425;iat_vr;59.90179699327787;
7;EINWANDFREI;positiv;p;1;9;29;16;p;1;0.5626121999994211;002;FSPG98;2019_Dec_03_1425;iat_vr;59.90179699327787;
7;BAUM;Natur;p;1;10;30;0;p;1;0.564801799999259;002;FSPG98;2019_Dec_03_1425;iat_vr;59.90179699327787;
7;SCHLECHT;negativ;q;1;11;31;11;q;1;0.5945859999992535;002;FSPG98;2019_Dec_03_1425;iat_vr;59.90179699327787;
7;NEGATIV;negativ;q;1;12;32;12;q;1;0.6147793000018282;002;FSPG98;2019_Dec_03_1425;iat_vr;59.90179699327787;
7;BLUME;Natur;p;1;13;33;2;p;1;0.4984965000003285;002;FSPG98;2019_Dec_03_1425;iat_vr;59.90179699327787;
7;HERVORRAGEND;positiv;p;1;14;34;17;p;1;0.5114298000007693;002;FSPG98;2019_Dec_03_1425;iat_vr;59.90179699327787;
7;POSITIV;positiv;p;1;15;35;18;p;1;0.6147065000004659;002;FSPG98;2019_Dec_03_1425;iat_vr;59.90179699327787;
7;SCHÄDLICH;negativ;q;1;16;36;13;q;1;0.5299806000002718;002;FSPG98;2019_Dec_03_1425;iat_vr;59.90179699327787;
7;KLEIDER;Gemacht;q;1;17;37;7;q;1;0.7818770000012591;002;FSPG98;2019_Dec_03_1425;iat_vr;59.90179699327787;
7;SCHWACH;negativ;q;1;18;38;14;q;1;0.6622537999974156;002;FSPG98;2019_Dec_03_1425;iat_vr;59.90179699327787;
7;WASSER;Natur;p;1;19;39;1;p;1;0.5678676999996242;002;FSPG98;2019_Dec_03_1425;iat_vr;59.90179699327787;
;;;;;;;;;;;002;FSPG98;2019_Dec_03_1425;iat_vr;59.90179699327787;
