Block;Word;Category;CorrResp;trials.thisRepN;trials.thisTrialN;trials.thisN;trials.thisIndex;key_resp_2.keys;key_resp_2.corr;key_resp_2.rt;session;participant;date;expName;frameRate;
1;BLUME;Natur;q;0;0;0;2;q;1;0.9947048999601975;001;JWEE96x;2019_Dec_13_1610;iat_vr;60.183716811588155;
1;TIER;Natur;q;0;1;1;3;q;1;0.9561711000278592;001;JWEE96x;2019_Dec_13_1610;iat_vr;60.183716811588155;
1;STEIN;Natur;q;0;2;2;4;q;1;1.056641299976036;001;JWEE96x;2019_Dec_13_1610;iat_vr;60.183716811588155;
1;STADT;Gemacht;p;0;3;3;6;p;1;0.9935775000485592;001;JWEE96x;2019_Dec_13_1610;iat_vr;60.183716811588155;
1;COMPUTER;Gemacht;p;0;4;4;8;p;1;0.7716289000236429;001;JWEE96x;2019_Dec_13_1610;iat_vr;60.183716811588155;
1;GEBÄUDE;Gemacht;p;0;5;5;5;p;1;1.173045200004708;001;JWEE96x;2019_Dec_13_1610;iat_vr;60.183716811588155;
1;LAMPE;Gemacht;p;0;6;6;9;p;1;1.3810602000448853;001;JWEE96x;2019_Dec_13_1610;iat_vr;60.183716811588155;
1;WASSER;Natur;q;0;7;7;1;q;1;0.8600980999763124;001;JWEE96x;2019_Dec_13_1610;iat_vr;60.183716811588155;
1;BAUM;Natur;q;0;8;8;0;q;1;1.4492239999817684;001;JWEE96x;2019_Dec_13_1610;iat_vr;60.183716811588155;
1;KLEIDER;Gemacht;p;0;9;9;7;p;1;0.7951900999760255;001;JWEE96x;2019_Dec_13_1610;iat_vr;60.183716811588155;
1;BLUME;Natur;q;1;0;10;2;q;1;0.8955627999966964;001;JWEE96x;2019_Dec_13_1610;iat_vr;60.183716811588155;
1;TIER;Natur;q;1;1;11;3;q;1;1.7141948000062257;001;JWEE96x;2019_Dec_13_1610;iat_vr;60.183716811588155;
1;GEBÄUDE;Gemacht;p;1;2;12;5;p;1;1.8480011000065133;001;JWEE96x;2019_Dec_13_1610;iat_vr;60.183716811588155;
1;COMPUTER;Gemacht;p;1;3;13;8;p;1;0.9316130999941379;001;JWEE96x;2019_Dec_13_1610;iat_vr;60.183716811588155;
1;KLEIDER;Gemacht;p;1;4;14;7;p;1;0.8468044000328518;001;JWEE96x;2019_Dec_13_1610;iat_vr;60.183716811588155;
1;STEIN;Natur;q;1;5;15;4;q;1;0.8150369999930263;001;JWEE96x;2019_Dec_13_1610;iat_vr;60.183716811588155;
1;BAUM;Natur;q;1;6;16;0;q;1;0.8974704000283964;001;JWEE96x;2019_Dec_13_1610;iat_vr;60.183716811588155;
1;WASSER;Natur;q;1;7;17;1;q;1;1.9147507000016049;001;JWEE96x;2019_Dec_13_1610;iat_vr;60.183716811588155;
1;LAMPE;Gemacht;p;1;8;18;9;p;1;0.6311636000173166;001;JWEE96x;2019_Dec_13_1610;iat_vr;60.183716811588155;
1;STADT;Gemacht;p;1;9;19;6;p;1;0.614293800026644;001;JWEE96x;2019_Dec_13_1610;iat_vr;60.183716811588155;
;;;;;;;;;;;001;JWEE96x;2019_Dec_13_1610;iat_vr;60.183716811588155;
2;SCHLIMM;negativ;q;0;0;0;0;q;1;1.7805639999569394;001;JWEE96x;2019_Dec_13_1610;iat_vr;60.183716811588155;
2;SCHÄDLICH;negativ;q;0;1;1;3;q;1;0.7119342000223696;001;JWEE96x;2019_Dec_13_1610;iat_vr;60.183716811588155;
2;GUT;positiv;p;0;2;2;9;p;1;0.6497423999826424;001;JWEE96x;2019_Dec_13_1610;iat_vr;60.183716811588155;
2;HERVORRAGEND;positiv;p;0;3;3;7;p;1;0.705907900002785;001;JWEE96x;2019_Dec_13_1610;iat_vr;60.183716811588155;
2;EINWANDFREI;positiv;p;0;4;4;6;p;1;0.792820299975574;001;JWEE96x;2019_Dec_13_1610;iat_vr;60.183716811588155;
2;SCHWACH;negativ;q;0;5;5;4;q;1;1.530975400004536;001;JWEE96x;2019_Dec_13_1610;iat_vr;60.183716811588155;
2;SCHLECHT;negativ;q;0;6;6;1;q;1;0.6957982999738306;001;JWEE96x;2019_Dec_13_1610;iat_vr;60.183716811588155;
2;NEGATIV;negativ;q;0;7;7;2;q;1;0.7466222000075504;001;JWEE96x;2019_Dec_13_1610;iat_vr;60.183716811588155;
2;AUSGEZEICHNET;positiv;p;0;8;8;5;p;1;1.1882428000099026;001;JWEE96x;2019_Dec_13_1610;iat_vr;60.183716811588155;
2;POSITIV;positiv;p;0;9;9;8;p;1;0.529763400030788;001;JWEE96x;2019_Dec_13_1610;iat_vr;60.183716811588155;
2;SCHLIMM;negativ;q;1;0;10;0;q;1;0.7938634000020102;001;JWEE96x;2019_Dec_13_1610;iat_vr;60.183716811588155;
2;SCHÄDLICH;negativ;q;1;1;11;3;q;1;0.5967341999639757;001;JWEE96x;2019_Dec_13_1610;iat_vr;60.183716811588155;
2;AUSGEZEICHNET;positiv;p;1;2;12;5;p;1;1.0776866999804042;001;JWEE96x;2019_Dec_13_1610;iat_vr;60.183716811588155;
2;GUT;positiv;p;1;3;13;9;p;1;0.5630881999968551;001;JWEE96x;2019_Dec_13_1610;iat_vr;60.183716811588155;
2;SCHWACH;negativ;q;1;4;14;4;q;1;1.6140971999848261;001;JWEE96x;2019_Dec_13_1610;iat_vr;60.183716811588155;
2;EINWANDFREI;positiv;p;1;5;15;6;p;1;0.9956691999686882;001;JWEE96x;2019_Dec_13_1610;iat_vr;60.183716811588155;
2;SCHLECHT;negativ;q;1;6;16;1;q;1;0.6973056999850087;001;JWEE96x;2019_Dec_13_1610;iat_vr;60.183716811588155;
2;POSITIV;positiv;p;1;7;17;8;p;1;0.6325809999834746;001;JWEE96x;2019_Dec_13_1610;iat_vr;60.183716811588155;
2;HERVORRAGEND;positiv;p;1;8;18;7;p;1;0.8950353999971412;001;JWEE96x;2019_Dec_13_1610;iat_vr;60.183716811588155;
2;NEGATIV;negativ;q;1;9;19;2;q;1;0.5651420999784023;001;JWEE96x;2019_Dec_13_1610;iat_vr;60.183716811588155;
;;;;;;;;;;;001;JWEE96x;2019_Dec_13_1610;iat_vr;60.183716811588155;
3;KLEIDER;Gemacht;p;0;0;0;17;p;1;2.986825099971611;001;JWEE96x;2019_Dec_13_1610;iat_vr;60.183716811588155;
3;WASSER;Natur;q;0;1;1;11;q;1;2.138255800004117;001;JWEE96x;2019_Dec_13_1610;iat_vr;60.183716811588155;
3;LAMPE;Gemacht;p;0;2;2;19;p;1;2.269086199987214;001;JWEE96x;2019_Dec_13_1610;iat_vr;60.183716811588155;
3;SCHÄDLICH;negativ;q;0;3;3;3;q;1;1.495759499957785;001;JWEE96x;2019_Dec_13_1610;iat_vr;60.183716811588155;
3;EINWANDFREI;positiv;p;0;4;4;6;p;1;3.660425700014457;001;JWEE96x;2019_Dec_13_1610;iat_vr;60.183716811588155;
3;SCHLECHT;negativ;q;0;5;5;1;q;1;0.8099338000174612;001;JWEE96x;2019_Dec_13_1610;iat_vr;60.183716811588155;
3;AUSGEZEICHNET;positiv;p;0;6;6;5;p;1;1.4121459999587387;001;JWEE96x;2019_Dec_13_1610;iat_vr;60.183716811588155;
3;HERVORRAGEND;positiv;p;0;7;7;7;p;1;0.7304418999701738;001;JWEE96x;2019_Dec_13_1610;iat_vr;60.183716811588155;
3;COMPUTER;Gemacht;p;0;8;8;18;p;1;0.5236860000295565;001;JWEE96x;2019_Dec_13_1610;iat_vr;60.183716811588155;
3;NEGATIV;negativ;q;0;9;9;2;q;1;2.9142835999955423;001;JWEE96x;2019_Dec_13_1610;iat_vr;60.183716811588155;
3;GUT;positiv;p;0;10;10;9;p;1;0.716189700004179;001;JWEE96x;2019_Dec_13_1610;iat_vr;60.183716811588155;
3;GEBÄUDE;Gemacht;p;0;11;11;15;p;1;0.7615118999965489;001;JWEE96x;2019_Dec_13_1610;iat_vr;60.183716811588155;
3;BLUME;Natur;q;0;12;12;12;q;1;0.7152170999906957;001;JWEE96x;2019_Dec_13_1610;iat_vr;60.183716811588155;
3;STADT;Gemacht;p;0;13;13;16;p;1;0.7652842999668792;001;JWEE96x;2019_Dec_13_1610;iat_vr;60.183716811588155;
3;STEIN;Natur;q;0;14;14;14;q;1;0.86486029997468;001;JWEE96x;2019_Dec_13_1610;iat_vr;60.183716811588155;
3;TIER;Natur;q;0;15;15;13;q;1;0.5653976000030525;001;JWEE96x;2019_Dec_13_1610;iat_vr;60.183716811588155;
3;BAUM;Natur;q;0;16;16;10;q;1;0.5155158000416122;001;JWEE96x;2019_Dec_13_1610;iat_vr;60.183716811588155;
3;SCHWACH;negativ;q;0;17;17;4;p;0;1.4308450000244193;001;JWEE96x;2019_Dec_13_1610;iat_vr;60.183716811588155;
3;POSITIV;positiv;p;0;18;18;8;p;1;0.90767029998824;001;JWEE96x;2019_Dec_13_1610;iat_vr;60.183716811588155;
3;SCHLIMM;negativ;q;0;19;19;0;q;1;0.6803679000004195;001;JWEE96x;2019_Dec_13_1610;iat_vr;60.183716811588155;
;;;;;;;;;;;001;JWEE96x;2019_Dec_13_1610;iat_vr;60.183716811588155;
4;BAUM;Natur;q;0;0;0;10;q;1;1.0579546999651939;001;JWEE96x;2019_Dec_13_1610;iat_vr;60.183716811588155;
4;TIER;Natur;q;0;1;1;13;q;1;0.7984270000015385;001;JWEE96x;2019_Dec_13_1610;iat_vr;60.183716811588155;
4;WASSER;Natur;q;0;2;2;11;q;1;0.7148125999956392;001;JWEE96x;2019_Dec_13_1610;iat_vr;60.183716811588155;
4;SCHÄDLICH;negativ;q;0;3;3;3;q;1;1.8124562000157312;001;JWEE96x;2019_Dec_13_1610;iat_vr;60.183716811588155;
4;STADT;Gemacht;p;0;4;4;16;p;1;1.1857515000156127;001;JWEE96x;2019_Dec_13_1610;iat_vr;60.183716811588155;
4;EINWANDFREI;positiv;p;0;5;5;6;p;1;1.5300849999766797;001;JWEE96x;2019_Dec_13_1610;iat_vr;60.183716811588155;
4;LAMPE;Gemacht;p;0;6;6;19;p;1;1.5475290000322275;001;JWEE96x;2019_Dec_13_1610;iat_vr;60.183716811588155;
4;POSITIV;positiv;p;0;7;7;8;q;0;3.730578200018499;001;JWEE96x;2019_Dec_13_1610;iat_vr;60.183716811588155;
4;SCHWACH;negativ;q;0;8;8;4;q;1;0.8308705000090413;001;JWEE96x;2019_Dec_13_1610;iat_vr;60.183716811588155;
4;GUT;positiv;p;0;9;9;9;p;1;0.6655083000077866;001;JWEE96x;2019_Dec_13_1610;iat_vr;60.183716811588155;
4;KLEIDER;Gemacht;p;0;10;10;17;p;1;1.63078000000678;001;JWEE96x;2019_Dec_13_1610;iat_vr;60.183716811588155;
4;SCHLIMM;negativ;q;0;11;11;0;q;1;1.2463753999909386;001;JWEE96x;2019_Dec_13_1610;iat_vr;60.183716811588155;
4;GEBÄUDE;Gemacht;p;0;12;12;15;p;1;2.2251602999749593;001;JWEE96x;2019_Dec_13_1610;iat_vr;60.183716811588155;
4;COMPUTER;Gemacht;p;0;13;13;18;p;1;0.5970576999825425;001;JWEE96x;2019_Dec_13_1610;iat_vr;60.183716811588155;
4;SCHLECHT;negativ;q;0;14;14;1;q;1;1.4634407000266947;001;JWEE96x;2019_Dec_13_1610;iat_vr;60.183716811588155;
4;STEIN;Natur;q;0;15;15;14;q;1;0.7138419999973848;001;JWEE96x;2019_Dec_13_1610;iat_vr;60.183716811588155;
4;BLUME;Natur;q;0;16;16;12;q;1;0.40953800000716;001;JWEE96x;2019_Dec_13_1610;iat_vr;60.183716811588155;
4;AUSGEZEICHNET;positiv;p;0;17;17;5;p;1;0.7930094000184909;001;JWEE96x;2019_Dec_13_1610;iat_vr;60.183716811588155;
4;HERVORRAGEND;positiv;p;0;18;18;7;p;1;0.46247639995999634;001;JWEE96x;2019_Dec_13_1610;iat_vr;60.183716811588155;
4;NEGATIV;negativ;q;0;19;19;2;q;1;0.864487300044857;001;JWEE96x;2019_Dec_13_1610;iat_vr;60.183716811588155;
4;GEBÄUDE;Gemacht;p;1;0;20;15;q;0;1.1467114999541081;001;JWEE96x;2019_Dec_13_1610;iat_vr;60.183716811588155;
4;SCHWACH;negativ;q;1;1;21;4;q;1;0.8922961000353098;001;JWEE96x;2019_Dec_13_1610;iat_vr;60.183716811588155;
4;SCHÄDLICH;negativ;q;1;2;22;3;q;1;0.5425302000367083;001;JWEE96x;2019_Dec_13_1610;iat_vr;60.183716811588155;
4;LAMPE;Gemacht;p;1;3;23;19;p;1;0.948756699974183;001;JWEE96x;2019_Dec_13_1610;iat_vr;60.183716811588155;
4;POSITIV;positiv;p;1;4;24;8;q;0;1.10648240003502;001;JWEE96x;2019_Dec_13_1610;iat_vr;60.183716811588155;
4;WASSER;Natur;q;1;5;25;11;q;1;1.780169100034982;001;JWEE96x;2019_Dec_13_1610;iat_vr;60.183716811588155;
4;GUT;positiv;p;1;6;26;9;q;0;0.9990292000002228;001;JWEE96x;2019_Dec_13_1610;iat_vr;60.183716811588155;
4;AUSGEZEICHNET;positiv;p;1;7;27;5;p;1;0.7283728999900632;001;JWEE96x;2019_Dec_13_1610;iat_vr;60.183716811588155;
4;NEGATIV;negativ;q;1;8;28;2;q;1;0.5966456000460312;001;JWEE96x;2019_Dec_13_1610;iat_vr;60.183716811588155;
4;HERVORRAGEND;positiv;p;1;9;29;7;p;1;0.7790508999605663;001;JWEE96x;2019_Dec_13_1610;iat_vr;60.183716811588155;
4;BLUME;Natur;q;1;10;30;12;q;1;1.0480318000190891;001;JWEE96x;2019_Dec_13_1610;iat_vr;60.183716811588155;
4;BAUM;Natur;q;1;11;31;10;q;1;0.548691299976781;001;JWEE96x;2019_Dec_13_1610;iat_vr;60.183716811588155;
4;TIER;Natur;q;1;12;32;13;q;1;0.4673346999916248;001;JWEE96x;2019_Dec_13_1610;iat_vr;60.183716811588155;
4;COMPUTER;Gemacht;p;1;13;33;18;p;1;0.643027100013569;001;JWEE96x;2019_Dec_13_1610;iat_vr;60.183716811588155;
4;EINWANDFREI;positiv;p;1;14;34;6;p;1;1.0284190999809653;001;JWEE96x;2019_Dec_13_1610;iat_vr;60.183716811588155;
4;STEIN;Natur;q;1;15;35;14;p;0;0.8820966999628581;001;JWEE96x;2019_Dec_13_1610;iat_vr;60.183716811588155;
4;SCHLECHT;negativ;q;1;16;36;1;p;0;0.998203499999363;001;JWEE96x;2019_Dec_13_1610;iat_vr;60.183716811588155;
4;SCHLIMM;negativ;q;1;17;37;0;q;1;0.689869900001213;001;JWEE96x;2019_Dec_13_1610;iat_vr;60.183716811588155;
4;STADT;Gemacht;p;1;18;38;16;p;1;0.6821757999714464;001;JWEE96x;2019_Dec_13_1610;iat_vr;60.183716811588155;
4;KLEIDER;Gemacht;p;1;19;39;17;p;1;0.7312168999924324;001;JWEE96x;2019_Dec_13_1610;iat_vr;60.183716811588155;
;;;;;;;;;;;001;JWEE96x;2019_Dec_13_1610;iat_vr;60.183716811588155;
5;LAMPE;Gemacht;q;0;0;0;9;q;1;2.402209700027015;001;JWEE96x;2019_Dec_13_1610;iat_vr;60.183716811588155;
5;STADT;Gemacht;q;0;1;1;6;q;1;0.5654990999610163;001;JWEE96x;2019_Dec_13_1610;iat_vr;60.183716811588155;
5;BAUM;Natur;p;0;2;2;0;p;1;1.0650845000054687;001;JWEE96x;2019_Dec_13_1610;iat_vr;60.183716811588155;
5;TIER;Natur;p;0;3;3;3;p;1;0.5816658000112511;001;JWEE96x;2019_Dec_13_1610;iat_vr;60.183716811588155;
5;COMPUTER;Gemacht;q;0;4;4;8;q;1;1.1305890000076033;001;JWEE96x;2019_Dec_13_1610;iat_vr;60.183716811588155;
5;WASSER;Natur;p;0;5;5;1;p;1;2.7770278000389226;001;JWEE96x;2019_Dec_13_1610;iat_vr;60.183716811588155;
5;BLUME;Natur;p;0;6;6;2;p;1;0.4989048999850638;001;JWEE96x;2019_Dec_13_1610;iat_vr;60.183716811588155;
5;GEBÄUDE;Gemacht;q;0;7;7;5;q;1;0.8641233000089414;001;JWEE96x;2019_Dec_13_1610;iat_vr;60.183716811588155;
5;STEIN;Natur;p;0;8;8;4;q;0;0.5637853000080213;001;JWEE96x;2019_Dec_13_1610;iat_vr;60.183716811588155;
5;KLEIDER;Gemacht;q;0;9;9;7;q;1;0.7464198999805376;001;JWEE96x;2019_Dec_13_1610;iat_vr;60.183716811588155;
5;COMPUTER;Gemacht;q;1;0;10;8;q;1;0.5802017999812961;001;JWEE96x;2019_Dec_13_1610;iat_vr;60.183716811588155;
5;BLUME;Natur;p;1;1;11;2;p;1;1.3144515000167303;001;JWEE96x;2019_Dec_13_1610;iat_vr;60.183716811588155;
5;LAMPE;Gemacht;q;1;2;12;9;p;0;0.3988777999766171;001;JWEE96x;2019_Dec_13_1610;iat_vr;60.183716811588155;
5;KLEIDER;Gemacht;q;1;3;13;7;q;1;1.5654777999734506;001;JWEE96x;2019_Dec_13_1610;iat_vr;60.183716811588155;
5;WASSER;Natur;p;1;4;14;1;p;1;0.648203500022646;001;JWEE96x;2019_Dec_13_1610;iat_vr;60.183716811588155;
5;STEIN;Natur;p;1;5;15;4;p;1;0.548756800009869;001;JWEE96x;2019_Dec_13_1610;iat_vr;60.183716811588155;
5;GEBÄUDE;Gemacht;q;1;6;16;5;q;1;0.6999896999914199;001;JWEE96x;2019_Dec_13_1610;iat_vr;60.183716811588155;
5;BAUM;Natur;p;1;7;17;0;p;1;0.5816510000149719;001;JWEE96x;2019_Dec_13_1610;iat_vr;60.183716811588155;
5;TIER;Natur;p;1;8;18;3;p;1;0.6487829000107013;001;JWEE96x;2019_Dec_13_1610;iat_vr;60.183716811588155;
5;STADT;Gemacht;q;1;9;19;6;p;0;0.43139349995180964;001;JWEE96x;2019_Dec_13_1610;iat_vr;60.183716811588155;
;;;;;;;;;;;001;JWEE96x;2019_Dec_13_1610;iat_vr;60.183716811588155;
6;STADT;Gemacht;q;0;0;0;6;q;1;1.459802299970761;001;JWEE96x;2019_Dec_13_1610;iat_vr;60.183716811588155;
6;COMPUTER;Gemacht;q;0;1;1;8;q;1;0.6239440000499599;001;JWEE96x;2019_Dec_13_1610;iat_vr;60.183716811588155;
6;SCHLIMM;negativ;q;0;2;2;10;q;1;0.7146211000508629;001;JWEE96x;2019_Dec_13_1610;iat_vr;60.183716811588155;
6;WASSER;Natur;p;0;3;3;1;p;1;0.7292799000279047;001;JWEE96x;2019_Dec_13_1610;iat_vr;60.183716811588155;
6;KLEIDER;Gemacht;q;0;4;4;7;q;1;1.062861900019925;001;JWEE96x;2019_Dec_13_1610;iat_vr;60.183716811588155;
6;GUT;positiv;p;0;5;5;19;p;1;0.6653907999861985;001;JWEE96x;2019_Dec_13_1610;iat_vr;60.183716811588155;
6;BLUME;Natur;p;0;6;6;2;p;1;1.0649022000143304;001;JWEE96x;2019_Dec_13_1610;iat_vr;60.183716811588155;
6;BAUM;Natur;p;0;7;7;0;p;1;0.5814850999740884;001;JWEE96x;2019_Dec_13_1610;iat_vr;60.183716811588155;
6;SCHÄDLICH;negativ;q;0;8;8;13;q;1;0.8313753000111319;001;JWEE96x;2019_Dec_13_1610;iat_vr;60.183716811588155;
6;HERVORRAGEND;positiv;p;0;9;9;17;p;1;1.3614257999579422;001;JWEE96x;2019_Dec_13_1610;iat_vr;60.183716811588155;
6;GEBÄUDE;Gemacht;q;0;10;10;5;q;1;0.9640293999691494;001;JWEE96x;2019_Dec_13_1610;iat_vr;60.183716811588155;
6;STEIN;Natur;p;0;11;11;4;p;1;1.3962690000189468;001;JWEE96x;2019_Dec_13_1610;iat_vr;60.183716811588155;
6;SCHLECHT;negativ;q;0;12;12;11;q;1;0.6626335000037216;001;JWEE96x;2019_Dec_13_1610;iat_vr;60.183716811588155;
6;EINWANDFREI;positiv;p;0;13;13;16;p;1;0.7704464999842457;001;JWEE96x;2019_Dec_13_1610;iat_vr;60.183716811588155;
6;NEGATIV;negativ;q;0;14;14;12;q;1;0.7643994000391103;001;JWEE96x;2019_Dec_13_1610;iat_vr;60.183716811588155;
6;POSITIV;positiv;p;0;15;15;18;p;1;0.729295999975875;001;JWEE96x;2019_Dec_13_1610;iat_vr;60.183716811588155;
6;LAMPE;Gemacht;q;0;16;16;9;q;1;1.5813832000130787;001;JWEE96x;2019_Dec_13_1610;iat_vr;60.183716811588155;
6;SCHWACH;negativ;q;0;17;17;14;q;1;0.7139217000221834;001;JWEE96x;2019_Dec_13_1610;iat_vr;60.183716811588155;
6;TIER;Natur;p;0;18;18;3;p;1;0.6656677999999374;001;JWEE96x;2019_Dec_13_1610;iat_vr;60.183716811588155;
6;AUSGEZEICHNET;positiv;p;0;19;19;15;p;1;0.6618162000086159;001;JWEE96x;2019_Dec_13_1610;iat_vr;60.183716811588155;
;;;;;;;;;;;001;JWEE96x;2019_Dec_13_1610;iat_vr;60.183716811588155;
7;GUT;positiv;p;0;0;0;19;p;1;1.7383620999753475;001;JWEE96x;2019_Dec_13_1610;iat_vr;60.183716811588155;
7;AUSGEZEICHNET;positiv;p;0;1;1;15;p;1;0.5599100000108592;001;JWEE96x;2019_Dec_13_1610;iat_vr;60.183716811588155;
7;STEIN;Natur;p;0;2;2;4;p;1;0.7133492000284605;001;JWEE96x;2019_Dec_13_1610;iat_vr;60.183716811588155;
7;HERVORRAGEND;positiv;p;0;3;3;17;p;1;0.6076323000015691;001;JWEE96x;2019_Dec_13_1610;iat_vr;60.183716811588155;
7;STADT;Gemacht;q;0;4;4;6;q;1;0.6142423000419512;001;JWEE96x;2019_Dec_13_1610;iat_vr;60.183716811588155;
7;KLEIDER;Gemacht;q;0;5;5;7;q;1;0.5681261999998242;001;JWEE96x;2019_Dec_13_1610;iat_vr;60.183716811588155;
7;EINWANDFREI;positiv;p;0;6;6;16;p;1;0.7488095000153407;001;JWEE96x;2019_Dec_13_1610;iat_vr;60.183716811588155;
7;SCHLECHT;negativ;q;0;7;7;11;q;1;0.6271361999679357;001;JWEE96x;2019_Dec_13_1610;iat_vr;60.183716811588155;
7;BLUME;Natur;p;0;8;8;2;p;1;0.8633891000063159;001;JWEE96x;2019_Dec_13_1610;iat_vr;60.183716811588155;
7;POSITIV;positiv;p;0;9;9;18;p;1;0.6609583999961615;001;JWEE96x;2019_Dec_13_1610;iat_vr;60.183716811588155;
7;WASSER;Natur;p;0;10;10;1;p;1;0.6979397999821231;001;JWEE96x;2019_Dec_13_1610;iat_vr;60.183716811588155;
7;COMPUTER;Gemacht;q;0;11;11;8;q;1;0.7878461999935098;001;JWEE96x;2019_Dec_13_1610;iat_vr;60.183716811588155;
7;TIER;Natur;p;0;12;12;3;p;1;0.6823740000254475;001;JWEE96x;2019_Dec_13_1610;iat_vr;60.183716811588155;
7;SCHLIMM;negativ;q;0;13;13;10;q;1;1.0627737999893725;001;JWEE96x;2019_Dec_13_1610;iat_vr;60.183716811588155;
7;GEBÄUDE;Gemacht;q;0;14;14;5;q;1;1.963594600034412;001;JWEE96x;2019_Dec_13_1610;iat_vr;60.183716811588155;
7;NEGATIV;negativ;q;0;15;15;12;q;1;0.6148204999626614;001;JWEE96x;2019_Dec_13_1610;iat_vr;60.183716811588155;
7;BAUM;Natur;p;0;16;16;0;p;1;0.6658146000117995;001;JWEE96x;2019_Dec_13_1610;iat_vr;60.183716811588155;
7;SCHWACH;negativ;q;0;17;17;14;q;1;0.7138498999993317;001;JWEE96x;2019_Dec_13_1610;iat_vr;60.183716811588155;
7;SCHÄDLICH;negativ;q;0;18;18;13;q;1;1.0943353000329807;001;JWEE96x;2019_Dec_13_1610;iat_vr;60.183716811588155;
7;LAMPE;Gemacht;q;0;19;19;9;q;1;1.1481913000461645;001;JWEE96x;2019_Dec_13_1610;iat_vr;60.183716811588155;
7;SCHLIMM;negativ;q;1;0;20;10;q;1;0.5641533000161871;001;JWEE96x;2019_Dec_13_1610;iat_vr;60.183716811588155;
7;NEGATIV;negativ;q;1;1;21;12;q;1;0.6479093999951147;001;JWEE96x;2019_Dec_13_1610;iat_vr;60.183716811588155;
7;EINWANDFREI;positiv;p;1;2;22;16;p;1;1.111983600014355;001;JWEE96x;2019_Dec_13_1610;iat_vr;60.183716811588155;
7;SCHLECHT;negativ;q;1;3;23;11;q;1;0.7810290000052191;001;JWEE96x;2019_Dec_13_1610;iat_vr;60.183716811588155;
7;SCHWACH;negativ;q;1;4;24;14;q;1;0.6476754000177607;001;JWEE96x;2019_Dec_13_1610;iat_vr;60.183716811588155;
7;BLUME;Natur;p;1;5;25;2;p;1;1.1972942999564111;001;JWEE96x;2019_Dec_13_1610;iat_vr;60.183716811588155;
7;COMPUTER;Gemacht;q;1;6;26;8;q;1;0.6271800000104122;001;JWEE96x;2019_Dec_13_1610;iat_vr;60.183716811588155;
7;STEIN;Natur;p;1;7;27;4;p;1;0.6645869999774732;001;JWEE96x;2019_Dec_13_1610;iat_vr;60.183716811588155;
7;SCHÄDLICH;negativ;q;1;8;28;13;q;1;0.7964846999966539;001;JWEE96x;2019_Dec_13_1610;iat_vr;60.183716811588155;
7;HERVORRAGEND;positiv;p;1;9;29;17;q;0;0.5624869999592192;001;JWEE96x;2019_Dec_13_1610;iat_vr;60.183716811588155;
7;STADT;Gemacht;q;1;10;30;6;q;1;0.7640319999773055;001;JWEE96x;2019_Dec_13_1610;iat_vr;60.183716811588155;
7;KLEIDER;Gemacht;q;1;11;31;7;q;1;0.5803915000287816;001;JWEE96x;2019_Dec_13_1610;iat_vr;60.183716811588155;
7;LAMPE;Gemacht;q;1;12;32;9;q;1;0.6162112000165507;001;JWEE96x;2019_Dec_13_1610;iat_vr;60.183716811588155;
7;POSITIV;positiv;p;1;13;33;18;p;1;0.5975596000207588;001;JWEE96x;2019_Dec_13_1610;iat_vr;60.183716811588155;
7;AUSGEZEICHNET;positiv;p;1;14;34;15;p;1;0.4959394999896176;001;JWEE96x;2019_Dec_13_1610;iat_vr;60.183716811588155;
7;TIER;Natur;p;1;15;35;3;p;1;0.8856365000247024;001;JWEE96x;2019_Dec_13_1610;iat_vr;60.183716811588155;
7;GEBÄUDE;Gemacht;q;1;16;36;5;q;1;0.6647314999718219;001;JWEE96x;2019_Dec_13_1610;iat_vr;60.183716811588155;
7;BAUM;Natur;p;1;17;37;0;p;1;0.6810408000019379;001;JWEE96x;2019_Dec_13_1610;iat_vr;60.183716811588155;
7;GUT;positiv;p;1;18;38;19;p;1;0.6167706999694929;001;JWEE96x;2019_Dec_13_1610;iat_vr;60.183716811588155;
7;WASSER;Natur;p;1;19;39;1;p;1;0.7823030999861658;001;JWEE96x;2019_Dec_13_1610;iat_vr;60.183716811588155;
;;;;;;;;;;;001;JWEE96x;2019_Dec_13_1610;iat_vr;60.183716811588155;
