Block;Word;Category;CorrResp;trials.thisRepN;trials.thisTrialN;trials.thisN;trials.thisIndex;key_resp_2.keys;key_resp_2.corr;key_resp_2.rt;session;participant;date;expName;frameRate;
1;BLUME;Natur;q;0;0;0;2;q;1;2.821735899982741;001;JWES98x;2019_Dec_11_1544;iat_vr;60.1121572632895;
1;LAMPE;Gemacht;p;0;1;1;9;p;1;1.3669492000190075;001;JWES98x;2019_Dec_11_1544;iat_vr;60.1121572632895;
1;COMPUTER;Gemacht;p;0;2;2;8;p;1;0.8144388000073377;001;JWES98x;2019_Dec_11_1544;iat_vr;60.1121572632895;
1;TIER;Natur;q;0;3;3;3;q;1;0.9833466999989469;001;JWES98x;2019_Dec_11_1544;iat_vr;60.1121572632895;
1;BAUM;Natur;q;0;4;4;0;q;1;0.8338983999856282;001;JWES98x;2019_Dec_11_1544;iat_vr;60.1121572632895;
1;WASSER;Natur;q;0;5;5;1;q;1;0.8637572999869008;001;JWES98x;2019_Dec_11_1544;iat_vr;60.1121572632895;
1;STEIN;Natur;q;0;6;6;4;q;1;0.8170672999985982;001;JWES98x;2019_Dec_11_1544;iat_vr;60.1121572632895;
1;STADT;Gemacht;p;0;7;7;6;p;1;0.8003309000050649;001;JWES98x;2019_Dec_11_1544;iat_vr;60.1121572632895;
1;KLEIDER;Gemacht;p;0;8;8;7;p;1;1.0503972999867983;001;JWES98x;2019_Dec_11_1544;iat_vr;60.1121572632895;
1;GEBÄUDE;Gemacht;p;0;9;9;5;p;1;0.8308913999935612;001;JWES98x;2019_Dec_11_1544;iat_vr;60.1121572632895;
1;WASSER;Natur;q;1;0;10;1;q;1;0.8000739999988582;001;JWES98x;2019_Dec_11_1544;iat_vr;60.1121572632895;
1;BLUME;Natur;q;1;1;11;2;q;1;0.6667941999912728;001;JWES98x;2019_Dec_11_1544;iat_vr;60.1121572632895;
1;COMPUTER;Gemacht;p;1;2;12;8;p;1;0.7002106000145432;001;JWES98x;2019_Dec_11_1544;iat_vr;60.1121572632895;
1;STADT;Gemacht;p;1;3;13;6;p;1;1.067002300027525;001;JWES98x;2019_Dec_11_1544;iat_vr;60.1121572632895;
1;TIER;Natur;q;1;4;14;3;q;1;0.6835177000029944;001;JWES98x;2019_Dec_11_1544;iat_vr;60.1121572632895;
1;KLEIDER;Gemacht;p;1;5;15;7;p;1;1.6669974999967963;001;JWES98x;2019_Dec_11_1544;iat_vr;60.1121572632895;
1;LAMPE;Gemacht;p;1;6;16;9;p;1;1.5169747000036296;001;JWES98x;2019_Dec_11_1544;iat_vr;60.1121572632895;
1;BAUM;Natur;q;1;7;17;0;q;1;0.6172423000098206;001;JWES98x;2019_Dec_11_1544;iat_vr;60.1121572632895;
1;GEBÄUDE;Gemacht;p;1;8;18;5;p;1;0.7837017000128981;001;JWES98x;2019_Dec_11_1544;iat_vr;60.1121572632895;
1;STEIN;Natur;q;1;9;19;4;q;1;0.7170143999974243;001;JWES98x;2019_Dec_11_1544;iat_vr;60.1121572632895;
;;;;;;;;;;;001;JWES98x;2019_Dec_11_1544;iat_vr;60.1121572632895;
2;SCHLIMM;negativ;q;0;0;0;0;q;1;0.8919732999929693;001;JWES98x;2019_Dec_11_1544;iat_vr;60.1121572632895;
2;SCHLECHT;negativ;q;0;1;1;1;q;1;0.9839775000000373;001;JWES98x;2019_Dec_11_1544;iat_vr;60.1121572632895;
2;NEGATIV;negativ;q;0;2;2;2;q;1;0.6169062000117265;001;JWES98x;2019_Dec_11_1544;iat_vr;60.1121572632895;
2;SCHWACH;negativ;q;0;3;3;4;q;1;0.6670643999823369;001;JWES98x;2019_Dec_11_1544;iat_vr;60.1121572632895;
2;AUSGEZEICHNET;positiv;p;0;4;4;5;p;1;1.100405100005446;001;JWES98x;2019_Dec_11_1544;iat_vr;60.1121572632895;
2;SCHÄDLICH;negativ;q;0;5;5;3;q;1;0.7669842999894172;001;JWES98x;2019_Dec_11_1544;iat_vr;60.1121572632895;
2;HERVORRAGEND;positiv;p;0;6;6;7;p;1;0.6499595000059344;001;JWES98x;2019_Dec_11_1544;iat_vr;60.1121572632895;
2;GUT;positiv;p;0;7;7;9;p;1;0.6334480000077747;001;JWES98x;2019_Dec_11_1544;iat_vr;60.1121572632895;
2;POSITIV;positiv;p;0;8;8;8;p;1;0.6503441999957431;001;JWES98x;2019_Dec_11_1544;iat_vr;60.1121572632895;
2;EINWANDFREI;positiv;p;0;9;9;6;p;1;0.8337112000153866;001;JWES98x;2019_Dec_11_1544;iat_vr;60.1121572632895;
2;POSITIV;positiv;p;1;0;10;8;p;1;0.6336347000033129;001;JWES98x;2019_Dec_11_1544;iat_vr;60.1121572632895;
2;GUT;positiv;p;1;1;11;9;p;1;0.6169449000153691;001;JWES98x;2019_Dec_11_1544;iat_vr;60.1121572632895;
2;EINWANDFREI;positiv;p;1;2;12;6;p;1;0.6838666000112426;001;JWES98x;2019_Dec_11_1544;iat_vr;60.1121572632895;
2;HERVORRAGEND;positiv;p;1;3;13;7;p;1;0.7001796000113245;001;JWES98x;2019_Dec_11_1544;iat_vr;60.1121572632895;
2;SCHWACH;negativ;q;1;4;14;4;q;1;0.6338881999836303;001;JWES98x;2019_Dec_11_1544;iat_vr;60.1121572632895;
2;NEGATIV;negativ;q;1;5;15;2;q;1;0.5670189000084065;001;JWES98x;2019_Dec_11_1544;iat_vr;60.1121572632895;
2;SCHLECHT;negativ;q;1;6;16;1;q;1;0.5835352000140119;001;JWES98x;2019_Dec_11_1544;iat_vr;60.1121572632895;
2;AUSGEZEICHNET;positiv;p;1;7;17;5;p;1;0.6837863999826368;001;JWES98x;2019_Dec_11_1544;iat_vr;60.1121572632895;
2;SCHLIMM;negativ;q;1;8;18;0;q;1;0.6001351999875624;001;JWES98x;2019_Dec_11_1544;iat_vr;60.1121572632895;
2;SCHÄDLICH;negativ;q;1;9;19;3;q;1;0.5835902999970131;001;JWES98x;2019_Dec_11_1544;iat_vr;60.1121572632895;
;;;;;;;;;;;001;JWES98x;2019_Dec_11_1544;iat_vr;60.1121572632895;
3;SCHWACH;negativ;q;0;0;0;4;q;1;1.6252914000069723;001;JWES98x;2019_Dec_11_1544;iat_vr;60.1121572632895;
3;POSITIV;positiv;p;0;1;1;8;p;1;0.7837395000096876;001;JWES98x;2019_Dec_11_1544;iat_vr;60.1121572632895;
3;BAUM;Natur;q;0;2;2;10;q;1;2.6671015000029;001;JWES98x;2019_Dec_11_1544;iat_vr;60.1121572632895;
3;AUSGEZEICHNET;positiv;p;0;3;3;5;p;1;1.5837807999923825;001;JWES98x;2019_Dec_11_1544;iat_vr;60.1121572632895;
3;HERVORRAGEND;positiv;p;0;4;4;7;p;1;0.9336054000013974;001;JWES98x;2019_Dec_11_1544;iat_vr;60.1121572632895;
3;STEIN;Natur;q;0;5;5;14;q;1;1.533551799977431;001;JWES98x;2019_Dec_11_1544;iat_vr;60.1121572632895;
3;WASSER;Natur;q;0;6;6;11;q;1;0.8171050999953877;001;JWES98x;2019_Dec_11_1544;iat_vr;60.1121572632895;
3;NEGATIV;negativ;q;0;7;7;2;q;1;0.9338104999915231;001;JWES98x;2019_Dec_11_1544;iat_vr;60.1121572632895;
3;BLUME;Natur;q;0;8;8;12;q;1;0.8835902000137139;001;JWES98x;2019_Dec_11_1544;iat_vr;60.1121572632895;
3;LAMPE;Gemacht;p;0;9;9;19;p;1;1.6668765000067651;001;JWES98x;2019_Dec_11_1544;iat_vr;60.1121572632895;
3;SCHÄDLICH;negativ;q;0;10;10;3;q;1;0.9001165999798104;001;JWES98x;2019_Dec_11_1544;iat_vr;60.1121572632895;
3;TIER;Natur;q;0;11;11;13;q;1;3.1164236000040546;001;JWES98x;2019_Dec_11_1544;iat_vr;60.1121572632895;
3;KLEIDER;Gemacht;p;0;12;12;17;p;1;1.0175792000081856;001;JWES98x;2019_Dec_11_1544;iat_vr;60.1121572632895;
3;GUT;positiv;p;0;13;13;9;p;1;1.5670258000027388;001;JWES98x;2019_Dec_11_1544;iat_vr;60.1121572632895;
3;SCHLECHT;negativ;q;0;14;14;1;q;1;1.6004966000036802;001;JWES98x;2019_Dec_11_1544;iat_vr;60.1121572632895;
3;EINWANDFREI;positiv;p;0;15;15;6;p;1;1.1836621999973431;001;JWES98x;2019_Dec_11_1544;iat_vr;60.1121572632895;
3;GEBÄUDE;Gemacht;p;0;16;16;15;p;1;1.0501150999916717;001;JWES98x;2019_Dec_11_1544;iat_vr;60.1121572632895;
3;COMPUTER;Gemacht;p;0;17;17;18;p;1;0.8167643000197131;001;JWES98x;2019_Dec_11_1544;iat_vr;60.1121572632895;
3;SCHLIMM;negativ;q;0;18;18;0;q;1;1.4837865000008605;001;JWES98x;2019_Dec_11_1544;iat_vr;60.1121572632895;
3;STADT;Gemacht;p;0;19;19;16;p;1;1.8170647000079043;001;JWES98x;2019_Dec_11_1544;iat_vr;60.1121572632895;
;;;;;;;;;;;001;JWES98x;2019_Dec_11_1544;iat_vr;60.1121572632895;
4;STADT;Gemacht;p;0;0;0;16;p;1;1.8638217999832705;001;JWES98x;2019_Dec_11_1544;iat_vr;60.1121572632895;
4;SCHLIMM;negativ;q;0;1;1;0;q;1;1.0002444999990985;001;JWES98x;2019_Dec_11_1544;iat_vr;60.1121572632895;
4;BLUME;Natur;q;0;2;2;12;q;1;0.9663632999872789;001;JWES98x;2019_Dec_11_1544;iat_vr;60.1121572632895;
4;WASSER;Natur;q;0;3;3;11;q;1;0.6335317000048235;001;JWES98x;2019_Dec_11_1544;iat_vr;60.1121572632895;
4;COMPUTER;Gemacht;p;0;4;4;18;p;1;1.4001109000237193;001;JWES98x;2019_Dec_11_1544;iat_vr;60.1121572632895;
4;NEGATIV;negativ;q;0;5;5;2;q;1;0.8005891000211705;001;JWES98x;2019_Dec_11_1544;iat_vr;60.1121572632895;
4;GUT;positiv;p;0;6;6;9;p;1;0.7499635000131093;001;JWES98x;2019_Dec_11_1544;iat_vr;60.1121572632895;
4;EINWANDFREI;positiv;p;0;7;7;6;p;1;0.8339699999778531;001;JWES98x;2019_Dec_11_1544;iat_vr;60.1121572632895;
4;AUSGEZEICHNET;positiv;p;0;8;8;5;p;1;0.6833881000056863;001;JWES98x;2019_Dec_11_1544;iat_vr;60.1121572632895;
4;TIER;Natur;q;0;9;9;13;q;1;0.9671896999934688;001;JWES98x;2019_Dec_11_1544;iat_vr;60.1121572632895;
4;KLEIDER;Gemacht;p;0;10;10;17;p;1;1.7671409999893513;001;JWES98x;2019_Dec_11_1544;iat_vr;60.1121572632895;
4;LAMPE;Gemacht;p;0;11;11;19;p;1;0.5838785999803804;001;JWES98x;2019_Dec_11_1544;iat_vr;60.1121572632895;
4;SCHWACH;negativ;q;0;12;12;4;q;1;0.8172246000031009;001;JWES98x;2019_Dec_11_1544;iat_vr;60.1121572632895;
4;STEIN;Natur;q;0;13;13;14;q;1;0.900741499994183;001;JWES98x;2019_Dec_11_1544;iat_vr;60.1121572632895;
4;GEBÄUDE;Gemacht;p;0;14;14;15;p;1;0.7500583000073675;001;JWES98x;2019_Dec_11_1544;iat_vr;60.1121572632895;
4;HERVORRAGEND;positiv;p;0;15;15;7;p;1;1.4006777000031434;001;JWES98x;2019_Dec_11_1544;iat_vr;60.1121572632895;
4;SCHÄDLICH;negativ;q;0;16;16;3;q;1;0.8004529000027105;001;JWES98x;2019_Dec_11_1544;iat_vr;60.1121572632895;
4;SCHLECHT;negativ;q;0;17;17;1;q;1;0.9171413999865763;001;JWES98x;2019_Dec_11_1544;iat_vr;60.1121572632895;
4;BAUM;Natur;q;0;18;18;10;q;1;1.1670814000244718;001;JWES98x;2019_Dec_11_1544;iat_vr;60.1121572632895;
4;POSITIV;positiv;p;0;19;19;8;p;1;0.9168666999903508;001;JWES98x;2019_Dec_11_1544;iat_vr;60.1121572632895;
4;AUSGEZEICHNET;positiv;p;1;0;20;5;p;1;0.7507814000127837;001;JWES98x;2019_Dec_11_1544;iat_vr;60.1121572632895;
4;WASSER;Natur;q;1;1;21;11;q;1;1.1835927999927662;001;JWES98x;2019_Dec_11_1544;iat_vr;60.1121572632895;
4;BLUME;Natur;q;1;2;22;12;q;1;0.7672239000094123;001;JWES98x;2019_Dec_11_1544;iat_vr;60.1121572632895;
4;SCHLIMM;negativ;q;1;3;23;0;q;1;0.850323999999091;001;JWES98x;2019_Dec_11_1544;iat_vr;60.1121572632895;
4;GUT;positiv;p;1;4;24;9;p;1;0.7672330999921542;001;JWES98x;2019_Dec_11_1544;iat_vr;60.1121572632895;
4;LAMPE;Gemacht;p;1;5;25;19;p;1;0.7003171999822371;001;JWES98x;2019_Dec_11_1544;iat_vr;60.1121572632895;
4;SCHÄDLICH;negativ;q;1;6;26;3;q;1;1.5837072000140324;001;JWES98x;2019_Dec_11_1544;iat_vr;60.1121572632895;
4;TIER;Natur;q;1;7;27;13;q;1;1.1837181000155397;001;JWES98x;2019_Dec_11_1544;iat_vr;60.1121572632895;
4;KLEIDER;Gemacht;p;1;8;28;17;p;1;1.0838308999955188;001;JWES98x;2019_Dec_11_1544;iat_vr;60.1121572632895;
4;SCHLECHT;negativ;q;1;9;29;1;q;1;2.3999195999931544;001;JWES98x;2019_Dec_11_1544;iat_vr;60.1121572632895;
4;BAUM;Natur;q;1;10;30;10;q;1;1.1337022999941837;001;JWES98x;2019_Dec_11_1544;iat_vr;60.1121572632895;
4;GEBÄUDE;Gemacht;p;1;11;31;15;p;1;0.8003204000124242;001;JWES98x;2019_Dec_11_1544;iat_vr;60.1121572632895;
4;STADT;Gemacht;p;1;12;32;16;p;1;0.7503398999979254;001;JWES98x;2019_Dec_11_1544;iat_vr;60.1121572632895;
4;NEGATIV;negativ;q;1;13;33;2;q;1;1.0170366000093054;001;JWES98x;2019_Dec_11_1544;iat_vr;60.1121572632895;
4;STEIN;Natur;q;1;14;34;14;q;1;0.9836346000083722;001;JWES98x;2019_Dec_11_1544;iat_vr;60.1121572632895;
4;HERVORRAGEND;positiv;p;1;15;35;7;p;1;0.7669490000116639;001;JWES98x;2019_Dec_11_1544;iat_vr;60.1121572632895;
4;COMPUTER;Gemacht;p;1;16;36;18;p;1;0.950114700011909;001;JWES98x;2019_Dec_11_1544;iat_vr;60.1121572632895;
4;POSITIV;positiv;p;1;17;37;8;p;1;0.7671606999938376;001;JWES98x;2019_Dec_11_1544;iat_vr;60.1121572632895;
4;EINWANDFREI;positiv;p;1;18;38;6;p;1;0.8003669000172522;001;JWES98x;2019_Dec_11_1544;iat_vr;60.1121572632895;
4;SCHWACH;negativ;q;1;19;39;4;q;1;0.7339461999945343;001;JWES98x;2019_Dec_11_1544;iat_vr;60.1121572632895;
;;;;;;;;;;;001;JWES98x;2019_Dec_11_1544;iat_vr;60.1121572632895;
5;BLUME;Natur;p;0;0;0;2;p;1;2.3955483000027016;001;JWES98x;2019_Dec_11_1544;iat_vr;60.1121572632895;
5;LAMPE;Gemacht;q;0;1;1;9;q;1;0.7836039999965578;001;JWES98x;2019_Dec_11_1544;iat_vr;60.1121572632895;
5;KLEIDER;Gemacht;q;0;2;2;7;q;1;2.450063299998874;001;JWES98x;2019_Dec_11_1544;iat_vr;60.1121572632895;
5;TIER;Natur;p;0;3;3;3;p;1;1.1335380999953486;001;JWES98x;2019_Dec_11_1544;iat_vr;60.1121572632895;
5;STADT;Gemacht;q;0;4;4;6;q;1;0.6672333999886177;001;JWES98x;2019_Dec_11_1544;iat_vr;60.1121572632895;
5;COMPUTER;Gemacht;q;0;5;5;8;q;1;0.9168427000113297;001;JWES98x;2019_Dec_11_1544;iat_vr;60.1121572632895;
5;GEBÄUDE;Gemacht;q;0;6;6;5;q;1;0.650684700027341;001;JWES98x;2019_Dec_11_1544;iat_vr;60.1121572632895;
5;WASSER;Natur;p;0;7;7;1;p;1;0.7006052999931853;001;JWES98x;2019_Dec_11_1544;iat_vr;60.1121572632895;
5;BAUM;Natur;p;0;8;8;0;p;1;0.6507208999828435;001;JWES98x;2019_Dec_11_1544;iat_vr;60.1121572632895;
5;STEIN;Natur;p;0;9;9;4;p;1;0.6666459999978542;001;JWES98x;2019_Dec_11_1544;iat_vr;60.1121572632895;
5;STADT;Gemacht;q;1;0;10;6;q;1;1.8003848000080325;001;JWES98x;2019_Dec_11_1544;iat_vr;60.1121572632895;
5;WASSER;Natur;p;1;1;11;1;p;1;0.817194200004451;001;JWES98x;2019_Dec_11_1544;iat_vr;60.1121572632895;
5;COMPUTER;Gemacht;q;1;2;12;8;q;1;0.833846800000174;001;JWES98x;2019_Dec_11_1544;iat_vr;60.1121572632895;
5;LAMPE;Gemacht;q;1;3;13;9;q;1;1.0502753999899141;001;JWES98x;2019_Dec_11_1544;iat_vr;60.1121572632895;
5;BLUME;Natur;p;1;4;14;2;p;1;1.0671793000074103;001;JWES98x;2019_Dec_11_1544;iat_vr;60.1121572632895;
5;KLEIDER;Gemacht;q;1;5;15;7;q;1;0.9172325999825262;001;JWES98x;2019_Dec_11_1544;iat_vr;60.1121572632895;
5;BAUM;Natur;p;1;6;16;0;p;1;0.8170703999930993;001;JWES98x;2019_Dec_11_1544;iat_vr;60.1121572632895;
5;GEBÄUDE;Gemacht;q;1;7;17;5;q;1;0.8170613000111189;001;JWES98x;2019_Dec_11_1544;iat_vr;60.1121572632895;
5;TIER;Natur;p;1;8;18;3;p;1;0.8837651000067126;001;JWES98x;2019_Dec_11_1544;iat_vr;60.1121572632895;
5;STEIN;Natur;p;1;9;19;4;p;1;0.7335967999824788;001;JWES98x;2019_Dec_11_1544;iat_vr;60.1121572632895;
;;;;;;;;;;;001;JWES98x;2019_Dec_11_1544;iat_vr;60.1121572632895;
6;POSITIV;positiv;p;0;0;0;18;p;1;0.8411683999875095;001;JWES98x;2019_Dec_11_1544;iat_vr;60.1121572632895;
6;SCHLECHT;negativ;q;0;1;1;11;q;1;1.083829399984097;001;JWES98x;2019_Dec_11_1544;iat_vr;60.1121572632895;
6;WASSER;Natur;p;0;2;2;1;p;1;0.7337182000046596;001;JWES98x;2019_Dec_11_1544;iat_vr;60.1121572632895;
6;SCHWACH;negativ;q;0;3;3;14;q;1;0.8504386999993585;001;JWES98x;2019_Dec_11_1544;iat_vr;60.1121572632895;
6;NEGATIV;negativ;q;0;4;4;12;q;1;0.7170222999993712;001;JWES98x;2019_Dec_11_1544;iat_vr;60.1121572632895;
6;COMPUTER;Gemacht;q;0;5;5;8;q;1;0.8837309000082314;001;JWES98x;2019_Dec_11_1544;iat_vr;60.1121572632895;
6;AUSGEZEICHNET;positiv;p;0;6;6;15;p;1;1.2339163000287954;001;JWES98x;2019_Dec_11_1544;iat_vr;60.1121572632895;
6;GUT;positiv;p;0;7;7;19;p;1;0.6338451000046916;001;JWES98x;2019_Dec_11_1544;iat_vr;60.1121572632895;
6;LAMPE;Gemacht;q;0;8;8;9;q;1;0.7006320999935269;001;JWES98x;2019_Dec_11_1544;iat_vr;60.1121572632895;
6;STADT;Gemacht;q;0;9;9;6;q;1;0.8003794000251219;001;JWES98x;2019_Dec_11_1544;iat_vr;60.1121572632895;
6;SCHÄDLICH;negativ;q;0;10;10;13;q;1;0.7169660000072327;001;JWES98x;2019_Dec_11_1544;iat_vr;60.1121572632895;
6;HERVORRAGEND;positiv;p;0;11;11;17;p;1;0.7170184999995399;001;JWES98x;2019_Dec_11_1544;iat_vr;60.1121572632895;
6;BAUM;Natur;p;0;12;12;0;p;1;0.8000403000041842;001;JWES98x;2019_Dec_11_1544;iat_vr;60.1121572632895;
6;SCHLIMM;negativ;q;0;13;13;10;q;1;1.250661800004309;001;JWES98x;2019_Dec_11_1544;iat_vr;60.1121572632895;
6;GEBÄUDE;Gemacht;q;0;14;14;5;q;1;0.9835849000082817;001;JWES98x;2019_Dec_11_1544;iat_vr;60.1121572632895;
6;BLUME;Natur;p;0;15;15;2;p;1;0.7667901999957394;001;JWES98x;2019_Dec_11_1544;iat_vr;60.1121572632895;
6;TIER;Natur;p;0;16;16;3;p;1;0.9007148999953642;001;JWES98x;2019_Dec_11_1544;iat_vr;60.1121572632895;
6;STEIN;Natur;p;0;17;17;4;p;1;0.9667732999951113;001;JWES98x;2019_Dec_11_1544;iat_vr;60.1121572632895;
6;KLEIDER;Gemacht;q;0;18;18;7;q;1;0.7839987000043038;001;JWES98x;2019_Dec_11_1544;iat_vr;60.1121572632895;
6;EINWANDFREI;positiv;p;0;19;19;16;p;1;0.7335058999888133;001;JWES98x;2019_Dec_11_1544;iat_vr;60.1121572632895;
;;;;;;;;;;;001;JWES98x;2019_Dec_11_1544;iat_vr;60.1121572632895;
7;SCHWACH;negativ;q;0;0;0;14;q;1;1.522423299989896;001;JWES98x;2019_Dec_11_1544;iat_vr;60.1121572632895;
7;STEIN;Natur;p;0;1;1;4;p;1;0.7837987999955658;001;JWES98x;2019_Dec_11_1544;iat_vr;60.1121572632895;
7;SCHLIMM;negativ;q;0;2;2;10;q;1;0.7340306999976747;001;JWES98x;2019_Dec_11_1544;iat_vr;60.1121572632895;
7;SCHLECHT;negativ;q;0;3;3;11;q;1;0.7180489999882411;001;JWES98x;2019_Dec_11_1544;iat_vr;60.1121572632895;
7;COMPUTER;Gemacht;q;0;4;4;8;q;1;1.0173820000200067;001;JWES98x;2019_Dec_11_1544;iat_vr;60.1121572632895;
7;AUSGEZEICHNET;positiv;p;0;5;5;15;p;1;0.7329489000258036;001;JWES98x;2019_Dec_11_1544;iat_vr;60.1121572632895;
7;HERVORRAGEND;positiv;p;0;6;6;17;p;1;0.6004910999909043;001;JWES98x;2019_Dec_11_1544;iat_vr;60.1121572632895;
7;KLEIDER;Gemacht;q;0;7;7;7;p;0;1.117245900008129;001;JWES98x;2019_Dec_11_1544;iat_vr;60.1121572632895;
7;NEGATIV;negativ;q;0;8;8;12;q;1;1.20689780000248;001;JWES98x;2019_Dec_11_1544;iat_vr;60.1121572632895;
7;TIER;Natur;p;0;9;9;3;p;1;1.6502010000112932;001;JWES98x;2019_Dec_11_1544;iat_vr;60.1121572632895;
7;BAUM;Natur;p;0;10;10;0;p;1;0.9500179000024218;001;JWES98x;2019_Dec_11_1544;iat_vr;60.1121572632895;
7;GUT;positiv;p;0;11;11;19;p;1;1.1503430000157095;001;JWES98x;2019_Dec_11_1544;iat_vr;60.1121572632895;
7;WASSER;Natur;p;0;12;12;1;p;1;0.8338878999929875;001;JWES98x;2019_Dec_11_1544;iat_vr;60.1121572632895;
7;LAMPE;Gemacht;q;0;13;13;9;q;1;1.2502158999850508;001;JWES98x;2019_Dec_11_1544;iat_vr;60.1121572632895;
7;STADT;Gemacht;q;0;14;14;6;q;1;0.9838695999933407;001;JWES98x;2019_Dec_11_1544;iat_vr;60.1121572632895;
7;SCHÄDLICH;negativ;q;0;15;15;13;q;1;0.8003916000016034;001;JWES98x;2019_Dec_11_1544;iat_vr;60.1121572632895;
7;BLUME;Natur;p;0;16;16;2;p;1;1.783969399984926;001;JWES98x;2019_Dec_11_1544;iat_vr;60.1121572632895;
7;EINWANDFREI;positiv;p;0;17;17;16;p;1;0.9171898000058718;001;JWES98x;2019_Dec_11_1544;iat_vr;60.1121572632895;
7;POSITIV;positiv;p;0;18;18;18;p;1;0.5671800000127405;001;JWES98x;2019_Dec_11_1544;iat_vr;60.1121572632895;
7;GEBÄUDE;Gemacht;q;0;19;19;5;q;1;0.950346300000092;001;JWES98x;2019_Dec_11_1544;iat_vr;60.1121572632895;
7;POSITIV;positiv;p;1;0;20;18;p;1;1.1503413999744225;001;JWES98x;2019_Dec_11_1544;iat_vr;60.1121572632895;
7;TIER;Natur;p;1;1;21;3;p;1;0.9336171999748331;001;JWES98x;2019_Dec_11_1544;iat_vr;60.1121572632895;
7;SCHLECHT;negativ;q;1;2;22;11;q;1;0.733311899995897;001;JWES98x;2019_Dec_11_1544;iat_vr;60.1121572632895;
7;NEGATIV;negativ;q;1;3;23;12;q;1;0.6172128000180237;001;JWES98x;2019_Dec_11_1544;iat_vr;60.1121572632895;
7;STEIN;Natur;p;1;4;24;4;p;1;0.7671486999897752;001;JWES98x;2019_Dec_11_1544;iat_vr;60.1121572632895;
7;COMPUTER;Gemacht;q;1;5;25;8;q;1;1.1335240000043996;001;JWES98x;2019_Dec_11_1544;iat_vr;60.1121572632895;
7;KLEIDER;Gemacht;q;1;6;26;7;q;1;1.9336274999950547;001;JWES98x;2019_Dec_11_1544;iat_vr;60.1121572632895;
7;LAMPE;Gemacht;q;1;7;27;9;q;1;0.7837671000161208;001;JWES98x;2019_Dec_11_1544;iat_vr;60.1121572632895;
7;SCHÄDLICH;negativ;q;1;8;28;13;q;1;1.850153000006685;001;JWES98x;2019_Dec_11_1544;iat_vr;60.1121572632895;
7;BAUM;Natur;p;1;9;29;0;p;1;1.4333483000227716;001;JWES98x;2019_Dec_11_1544;iat_vr;60.1121572632895;
7;STADT;Gemacht;q;1;10;30;6;q;1;0.7502399000222795;001;JWES98x;2019_Dec_11_1544;iat_vr;60.1121572632895;
7;BLUME;Natur;p;1;11;31;2;p;1;0.7006328999996185;001;JWES98x;2019_Dec_11_1544;iat_vr;60.1121572632895;
7;SCHLIMM;negativ;q;1;12;32;10;q;1;0.7836505000013858;001;JWES98x;2019_Dec_11_1544;iat_vr;60.1121572632895;
7;HERVORRAGEND;positiv;p;1;13;33;17;p;1;0.8006160999939311;001;JWES98x;2019_Dec_11_1544;iat_vr;60.1121572632895;
7;GEBÄUDE;Gemacht;q;1;14;34;5;q;1;3.383310300006997;001;JWES98x;2019_Dec_11_1544;iat_vr;60.1121572632895;
7;SCHWACH;negativ;q;1;15;35;14;q;1;1.9332520000170916;001;JWES98x;2019_Dec_11_1544;iat_vr;60.1121572632895;
7;AUSGEZEICHNET;positiv;p;1;16;36;15;p;1;0.9833984000142664;001;JWES98x;2019_Dec_11_1544;iat_vr;60.1121572632895;
7;WASSER;Natur;p;1;17;37;1;p;1;0.734038700000383;001;JWES98x;2019_Dec_11_1544;iat_vr;60.1121572632895;
7;EINWANDFREI;positiv;p;1;18;38;16;p;1;0.8341331999981776;001;JWES98x;2019_Dec_11_1544;iat_vr;60.1121572632895;
7;GUT;positiv;p;1;19;39;19;p;1;0.6669220000039786;001;JWES98x;2019_Dec_11_1544;iat_vr;60.1121572632895;
;;;;;;;;;;;001;JWES98x;2019_Dec_11_1544;iat_vr;60.1121572632895;
