Block;Word;Category;CorrResp;trials.thisRepN;trials.thisTrialN;trials.thisN;trials.thisIndex;key_resp_2.keys;key_resp_2.corr;key_resp_2.rt;session;participant;date;expName;frameRate;
1;STEIN;Natur;q;0;0;0;4;q;1;1.2149830999987898;001;JWFN90x;2019_Dec_10_1456;iat_vr;60.031504534111455;
1;STADT;Gemacht;p;0;1;1;6;p;1;0.8920967000012752;001;JWFN90x;2019_Dec_10_1456;iat_vr;60.031504534111455;
1;KLEIDER;Gemacht;p;0;2;2;7;p;1;0.9230349999997998;001;JWFN90x;2019_Dec_10_1456;iat_vr;60.031504534111455;
1;WASSER;Natur;q;0;3;3;1;q;1;0.794681400002446;001;JWFN90x;2019_Dec_10_1456;iat_vr;60.031504534111455;
1;BLUME;Natur;q;0;4;4;2;q;1;0.8381703000050038;001;JWFN90x;2019_Dec_10_1456;iat_vr;60.031504534111455;
1;GEBÄUDE;Gemacht;p;0;5;5;5;p;1;0.8069677999883424;001;JWFN90x;2019_Dec_10_1456;iat_vr;60.031504534111455;
1;LAMPE;Gemacht;p;0;6;6;9;p;1;1.2068290000024717;001;JWFN90x;2019_Dec_10_1456;iat_vr;60.031504534111455;
1;BAUM;Natur;q;0;7;7;0;q;1;0.8828306999930646;001;JWFN90x;2019_Dec_10_1456;iat_vr;60.031504534111455;
1;TIER;Natur;q;0;8;8;3;q;1;0.8808430999924894;001;JWFN90x;2019_Dec_10_1456;iat_vr;60.031504534111455;
1;COMPUTER;Gemacht;p;0;9;9;8;p;1;0.8392843000037828;001;JWFN90x;2019_Dec_10_1456;iat_vr;60.031504534111455;
1;STADT;Gemacht;p;1;0;10;6;p;1;0.8654837999929441;001;JWFN90x;2019_Dec_10_1456;iat_vr;60.031504534111455;
1;STEIN;Natur;q;1;1;11;4;q;1;0.7680528000055347;001;JWFN90x;2019_Dec_10_1456;iat_vr;60.031504534111455;
1;TIER;Natur;q;1;2;12;3;q;1;0.7663814000115963;001;JWFN90x;2019_Dec_10_1456;iat_vr;60.031504534111455;
1;WASSER;Natur;q;1;3;13;1;q;1;0.7652913999918383;001;JWFN90x;2019_Dec_10_1456;iat_vr;60.031504534111455;
1;BAUM;Natur;q;1;4;14;0;q;1;0.8323044999997364;001;JWFN90x;2019_Dec_10_1456;iat_vr;60.031504534111455;
1;GEBÄUDE;Gemacht;p;1;5;15;5;q;0;0.9976578000059817;001;JWFN90x;2019_Dec_10_1456;iat_vr;60.031504534111455;
1;LAMPE;Gemacht;p;1;6;16;9;p;1;0.9820111000008183;001;JWFN90x;2019_Dec_10_1456;iat_vr;60.031504534111455;
1;COMPUTER;Gemacht;p;1;7;17;8;p;1;0.6926983000012115;001;JWFN90x;2019_Dec_10_1456;iat_vr;60.031504534111455;
1;BLUME;Natur;q;1;8;18;2;q;1;0.6671035000035772;001;JWFN90x;2019_Dec_10_1456;iat_vr;60.031504534111455;
1;KLEIDER;Gemacht;p;1;9;19;7;p;1;0.7502343999949517;001;JWFN90x;2019_Dec_10_1456;iat_vr;60.031504534111455;
;;;;;;;;;;;001;JWFN90x;2019_Dec_10_1456;iat_vr;60.031504534111455;
2;POSITIV;positiv;p;0;0;0;8;p;1;1.647289999993518;001;JWFN90x;2019_Dec_10_1456;iat_vr;60.031504534111455;
2;SCHWACH;negativ;q;0;1;1;4;q;1;2.013964500001748;001;JWFN90x;2019_Dec_10_1456;iat_vr;60.031504534111455;
2;HERVORRAGEND;positiv;p;0;2;2;7;p;1;0.9297295999858761;001;JWFN90x;2019_Dec_10_1456;iat_vr;60.031504534111455;
2;GUT;positiv;p;0;3;3;9;p;1;1.081415000007837;001;JWFN90x;2019_Dec_10_1456;iat_vr;60.031504534111455;
2;SCHLIMM;negativ;q;0;4;4;0;q;1;0.8313238999980967;001;JWFN90x;2019_Dec_10_1456;iat_vr;60.031504534111455;
2;EINWANDFREI;positiv;p;0;5;5;6;p;1;0.9615348999941489;001;JWFN90x;2019_Dec_10_1456;iat_vr;60.031504534111455;
2;SCHÄDLICH;negativ;q;0;6;6;3;q;1;0.9123958999989554;001;JWFN90x;2019_Dec_10_1456;iat_vr;60.031504534111455;
2;NEGATIV;negativ;q;0;7;7;2;q;1;1.0147817999968538;001;JWFN90x;2019_Dec_10_1456;iat_vr;60.031504534111455;
2;SCHLECHT;negativ;q;0;8;8;1;q;1;0.8640572000003885;001;JWFN90x;2019_Dec_10_1456;iat_vr;60.031504534111455;
2;AUSGEZEICHNET;positiv;p;0;9;9;5;p;1;1.4900599000102375;001;JWFN90x;2019_Dec_10_1456;iat_vr;60.031504534111455;
2;AUSGEZEICHNET;positiv;p;1;0;10;5;p;1;0.7342647000041325;001;JWFN90x;2019_Dec_10_1456;iat_vr;60.031504534111455;
2;EINWANDFREI;positiv;p;1;1;11;6;p;1;1.036152000000584;001;JWFN90x;2019_Dec_10_1456;iat_vr;60.031504534111455;
2;SCHLIMM;negativ;q;1;2;12;0;q;1;0.6817038000008324;001;JWFN90x;2019_Dec_10_1456;iat_vr;60.031504534111455;
2;SCHWACH;negativ;q;1;3;13;4;q;1;0.7452113000035752;001;JWFN90x;2019_Dec_10_1456;iat_vr;60.031504534111455;
2;GUT;positiv;p;1;4;14;9;p;1;0.682677100005094;001;JWFN90x;2019_Dec_10_1456;iat_vr;60.031504534111455;
2;SCHLECHT;negativ;q;1;5;15;1;q;1;0.646528400000534;001;JWFN90x;2019_Dec_10_1456;iat_vr;60.031504534111455;
2;POSITIV;positiv;p;1;6;16;8;p;1;0.6635199000011198;001;JWFN90x;2019_Dec_10_1456;iat_vr;60.031504534111455;
2;HERVORRAGEND;positiv;p;1;7;17;7;p;1;0.7939810999960173;001;JWFN90x;2019_Dec_10_1456;iat_vr;60.031504534111455;
2;NEGATIV;negativ;q;1;8;18;2;q;1;0.6810066000034567;001;JWFN90x;2019_Dec_10_1456;iat_vr;60.031504534111455;
2;SCHÄDLICH;negativ;q;1;9;19;3;q;1;0.8307309000083478;001;JWFN90x;2019_Dec_10_1456;iat_vr;60.031504534111455;
;;;;;;;;;;;001;JWFN90x;2019_Dec_10_1456;iat_vr;60.031504534111455;
3;COMPUTER;Gemacht;p;0;0;0;18;p;1;1.3270308000064688;001;JWFN90x;2019_Dec_10_1456;iat_vr;60.031504534111455;
3;WASSER;Natur;q;0;1;1;11;q;1;0.9488232000003336;001;JWFN90x;2019_Dec_10_1456;iat_vr;60.031504534111455;
3;SCHÄDLICH;negativ;q;0;2;2;3;q;1;1.1133970999944722;001;JWFN90x;2019_Dec_10_1456;iat_vr;60.031504534111455;
3;LAMPE;Gemacht;p;0;3;3;19;p;1;0.9992238000122597;001;JWFN90x;2019_Dec_10_1456;iat_vr;60.031504534111455;
3;AUSGEZEICHNET;positiv;p;0;4;4;5;p;1;1.0603561000025366;001;JWFN90x;2019_Dec_10_1456;iat_vr;60.031504534111455;
3;STEIN;Natur;q;0;5;5;14;q;1;0.9682139000069583;001;JWFN90x;2019_Dec_10_1456;iat_vr;60.031504534111455;
3;KLEIDER;Gemacht;p;0;6;6;17;p;1;0.9589352000039071;001;JWFN90x;2019_Dec_10_1456;iat_vr;60.031504534111455;
3;BLUME;Natur;q;0;7;7;12;q;1;0.9023047999944538;001;JWFN90x;2019_Dec_10_1456;iat_vr;60.031504534111455;
3;HERVORRAGEND;positiv;p;0;8;8;7;p;1;0.7856253000063589;001;JWFN90x;2019_Dec_10_1456;iat_vr;60.031504534111455;
3;TIER;Natur;q;0;9;9;13;q;1;1.0330284999945434;001;JWFN90x;2019_Dec_10_1456;iat_vr;60.031504534111455;
3;GEBÄUDE;Gemacht;p;0;10;10;15;p;1;0.7935394999949494;001;JWFN90x;2019_Dec_10_1456;iat_vr;60.031504534111455;
3;GUT;positiv;p;0;11;11;9;p;1;0.9154699999926379;001;JWFN90x;2019_Dec_10_1456;iat_vr;60.031504534111455;
3;STADT;Gemacht;p;0;12;12;16;p;1;0.9473829000053229;001;JWFN90x;2019_Dec_10_1456;iat_vr;60.031504534111455;
3;SCHWACH;negativ;q;0;13;13;4;q;1;0.7634762000088813;001;JWFN90x;2019_Dec_10_1456;iat_vr;60.031504534111455;
3;SCHLIMM;negativ;q;0;14;14;0;q;1;0.7797852000076091;001;JWFN90x;2019_Dec_10_1456;iat_vr;60.031504534111455;
3;NEGATIV;negativ;q;0;15;15;2;q;1;0.7312989000056405;001;JWFN90x;2019_Dec_10_1456;iat_vr;60.031504534111455;
3;POSITIV;positiv;p;0;16;16;8;p;1;0.7976644000009401;001;JWFN90x;2019_Dec_10_1456;iat_vr;60.031504534111455;
3;SCHLECHT;negativ;q;0;17;17;1;q;1;0.9300859000068158;001;JWFN90x;2019_Dec_10_1456;iat_vr;60.031504534111455;
3;EINWANDFREI;positiv;p;0;18;18;6;p;1;0.8089718000119319;001;JWFN90x;2019_Dec_10_1456;iat_vr;60.031504534111455;
3;BAUM;Natur;q;0;19;19;10;q;1;0.8628901999909431;001;JWFN90x;2019_Dec_10_1456;iat_vr;60.031504534111455;
;;;;;;;;;;;001;JWFN90x;2019_Dec_10_1456;iat_vr;60.031504534111455;
4;STADT;Gemacht;p;0;0;0;16;p;1;4.185422599999583;001;JWFN90x;2019_Dec_10_1456;iat_vr;60.031504534111455;
4;NEGATIV;negativ;q;0;1;1;2;q;1;0.79849520001153;001;JWFN90x;2019_Dec_10_1456;iat_vr;60.031504534111455;
4;KLEIDER;Gemacht;p;0;2;2;17;p;1;1.2631962000014028;001;JWFN90x;2019_Dec_10_1456;iat_vr;60.031504534111455;
4;SCHLIMM;negativ;q;0;3;3;0;q;1;5.1298575999971945;001;JWFN90x;2019_Dec_10_1456;iat_vr;60.031504534111455;
4;SCHWACH;negativ;q;0;4;4;4;q;1;1.0355072999955155;001;JWFN90x;2019_Dec_10_1456;iat_vr;60.031504534111455;
4;GUT;positiv;p;0;5;5;9;p;1;0.9492985999968369;001;JWFN90x;2019_Dec_10_1456;iat_vr;60.031504534111455;
4;BAUM;Natur;q;0;6;6;10;q;1;0.8167623999906937;001;JWFN90x;2019_Dec_10_1456;iat_vr;60.031504534111455;
4;TIER;Natur;q;0;7;7;13;q;1;0.8474724999978207;001;JWFN90x;2019_Dec_10_1456;iat_vr;60.031504534111455;
4;STEIN;Natur;q;0;8;8;14;q;1;0.9309000999928685;001;JWFN90x;2019_Dec_10_1456;iat_vr;60.031504534111455;
4;AUSGEZEICHNET;positiv;p;0;9;9;5;p;1;0.6542354999983218;001;JWFN90x;2019_Dec_10_1456;iat_vr;60.031504534111455;
4;WASSER;Natur;q;0;10;10;11;q;1;0.7320486999960849;001;JWFN90x;2019_Dec_10_1456;iat_vr;60.031504534111455;
4;SCHÄDLICH;negativ;q;0;11;11;3;q;1;1.513525300004403;001;JWFN90x;2019_Dec_10_1456;iat_vr;60.031504534111455;
4;POSITIV;positiv;p;0;12;12;8;p;1;0.8352056000003358;001;JWFN90x;2019_Dec_10_1456;iat_vr;60.031504534111455;
4;LAMPE;Gemacht;p;0;13;13;19;p;1;0.7651552000024822;001;JWFN90x;2019_Dec_10_1456;iat_vr;60.031504534111455;
4;HERVORRAGEND;positiv;p;0;14;14;7;p;1;0.8125740999967093;001;JWFN90x;2019_Dec_10_1456;iat_vr;60.031504534111455;
4;SCHLECHT;negativ;q;0;15;15;1;q;1;0.7475094999972498;001;JWFN90x;2019_Dec_10_1456;iat_vr;60.031504534111455;
4;BLUME;Natur;q;0;16;16;12;q;1;0.765129400009755;001;JWFN90x;2019_Dec_10_1456;iat_vr;60.031504534111455;
4;EINWANDFREI;positiv;p;0;17;17;6;q;0;1.1428155000030529;001;JWFN90x;2019_Dec_10_1456;iat_vr;60.031504534111455;
4;GEBÄUDE;Gemacht;p;0;18;18;15;p;1;0.6854766000033123;001;JWFN90x;2019_Dec_10_1456;iat_vr;60.031504534111455;
4;COMPUTER;Gemacht;p;0;19;19;18;p;1;0.8299359999946319;001;JWFN90x;2019_Dec_10_1456;iat_vr;60.031504534111455;
4;EINWANDFREI;positiv;p;1;0;20;6;p;1;1.3293597000010777;001;JWFN90x;2019_Dec_10_1456;iat_vr;60.031504534111455;
4;SCHLIMM;negativ;q;1;1;21;0;q;1;0.6477745000011055;001;JWFN90x;2019_Dec_10_1456;iat_vr;60.031504534111455;
4;SCHLECHT;negativ;q;1;2;22;1;q;1;0.9291703000053531;001;JWFN90x;2019_Dec_10_1456;iat_vr;60.031504534111455;
4;POSITIV;positiv;p;1;3;23;8;p;1;0.8299019999976736;001;JWFN90x;2019_Dec_10_1456;iat_vr;60.031504534111455;
4;BAUM;Natur;q;1;4;24;10;q;1;0.7648475999885704;001;JWFN90x;2019_Dec_10_1456;iat_vr;60.031504534111455;
4;STADT;Gemacht;p;1;5;25;16;p;1;0.6483691000030376;001;JWFN90x;2019_Dec_10_1456;iat_vr;60.031504534111455;
4;AUSGEZEICHNET;positiv;p;1;6;26;5;p;1;0.7288931000075536;001;JWFN90x;2019_Dec_10_1456;iat_vr;60.031504534111455;
4;TIER;Natur;q;1;7;27;13;q;1;1.931555599992862;001;JWFN90x;2019_Dec_10_1456;iat_vr;60.031504534111455;
4;HERVORRAGEND;positiv;p;1;8;28;7;p;1;1.8105548000021372;001;JWFN90x;2019_Dec_10_1456;iat_vr;60.031504534111455;
4;LAMPE;Gemacht;p;1;9;29;19;p;1;0.6136830000032205;001;JWFN90x;2019_Dec_10_1456;iat_vr;60.031504534111455;
4;NEGATIV;negativ;q;1;10;30;2;q;1;0.8302003999997396;001;JWFN90x;2019_Dec_10_1456;iat_vr;60.031504534111455;
4;SCHÄDLICH;negativ;q;1;11;31;3;q;1;0.8189034000097308;001;JWFN90x;2019_Dec_10_1456;iat_vr;60.031504534111455;
4;WASSER;Natur;q;1;12;32;11;q;1;0.6589612000097986;001;JWFN90x;2019_Dec_10_1456;iat_vr;60.031504534111455;
4;GUT;positiv;p;1;13;33;9;p;1;0.9317691999895032;001;JWFN90x;2019_Dec_10_1456;iat_vr;60.031504534111455;
4;SCHWACH;negativ;q;1;14;34;4;q;1;0.7651103999960469;001;JWFN90x;2019_Dec_10_1456;iat_vr;60.031504534111455;
4;GEBÄUDE;Gemacht;p;1;15;35;15;p;1;0.6603074000013294;001;JWFN90x;2019_Dec_10_1456;iat_vr;60.031504534111455;
4;STEIN;Natur;q;1;16;36;14;q;1;0.7485044000059133;001;JWFN90x;2019_Dec_10_1456;iat_vr;60.031504534111455;
4;COMPUTER;Gemacht;p;1;17;37;18;p;1;0.8522389999998268;001;JWFN90x;2019_Dec_10_1456;iat_vr;60.031504534111455;
4;BLUME;Natur;q;1;18;38;12;q;1;0.7333672000095248;001;JWFN90x;2019_Dec_10_1456;iat_vr;60.031504534111455;
4;KLEIDER;Gemacht;p;1;19;39;17;p;1;0.7150453999929596;001;JWFN90x;2019_Dec_10_1456;iat_vr;60.031504534111455;
;;;;;;;;;;;001;JWFN90x;2019_Dec_10_1456;iat_vr;60.031504534111455;
5;BLUME;Natur;p;0;0;0;2;p;1;1.4976632000034442;001;JWFN90x;2019_Dec_10_1456;iat_vr;60.031504534111455;
5;STEIN;Natur;p;0;1;1;4;p;1;0.76528559999133;001;JWFN90x;2019_Dec_10_1456;iat_vr;60.031504534111455;
5;WASSER;Natur;p;0;2;2;1;p;1;0.6794146000029286;001;JWFN90x;2019_Dec_10_1456;iat_vr;60.031504534111455;
5;BAUM;Natur;p;0;3;3;0;p;1;0.6805102000071201;001;JWFN90x;2019_Dec_10_1456;iat_vr;60.031504534111455;
5;KLEIDER;Gemacht;q;0;4;4;7;q;1;0.5853288999933284;001;JWFN90x;2019_Dec_10_1456;iat_vr;60.031504534111455;
5;TIER;Natur;p;0;5;5;3;p;1;0.6488136999978451;001;JWFN90x;2019_Dec_10_1456;iat_vr;60.031504534111455;
5;GEBÄUDE;Gemacht;q;0;6;6;5;q;1;0.6627840000001015;001;JWFN90x;2019_Dec_10_1456;iat_vr;60.031504534111455;
5;STADT;Gemacht;q;0;7;7;6;q;1;0.7805350000126055;001;JWFN90x;2019_Dec_10_1456;iat_vr;60.031504534111455;
5;LAMPE;Gemacht;q;0;8;8;9;q;1;1.3357116999977734;001;JWFN90x;2019_Dec_10_1456;iat_vr;60.031504534111455;
5;COMPUTER;Gemacht;q;0;9;9;8;q;1;0.6806536999938544;001;JWFN90x;2019_Dec_10_1456;iat_vr;60.031504534111455;
5;WASSER;Natur;p;1;0;10;1;p;1;0.6811959000042407;001;JWFN90x;2019_Dec_10_1456;iat_vr;60.031504534111455;
5;GEBÄUDE;Gemacht;q;1;1;11;5;q;1;0.9806647000077646;001;JWFN90x;2019_Dec_10_1456;iat_vr;60.031504534111455;
5;STEIN;Natur;p;1;2;12;4;p;1;1.647240399994189;001;JWFN90x;2019_Dec_10_1456;iat_vr;60.031504534111455;
5;TIER;Natur;p;1;3;13;3;p;1;0.6325556999945547;001;JWFN90x;2019_Dec_10_1456;iat_vr;60.031504534111455;
5;COMPUTER;Gemacht;q;1;4;14;8;q;1;0.663995300012175;001;JWFN90x;2019_Dec_10_1456;iat_vr;60.031504534111455;
5;STADT;Gemacht;q;1;5;15;6;q;1;0.802569699997548;001;JWFN90x;2019_Dec_10_1456;iat_vr;60.031504534111455;
5;BLUME;Natur;p;1;6;16;2;p;1;0.6483642000093823;001;JWFN90x;2019_Dec_10_1456;iat_vr;60.031504534111455;
5;BAUM;Natur;p;1;7;17;0;p;1;1.1146956000011414;001;JWFN90x;2019_Dec_10_1456;iat_vr;60.031504534111455;
5;LAMPE;Gemacht;q;1;8;18;9;q;1;0.6479595999990124;001;JWFN90x;2019_Dec_10_1456;iat_vr;60.031504534111455;
5;KLEIDER;Gemacht;q;1;9;19;7;p;0;0.5816862000065157;001;JWFN90x;2019_Dec_10_1456;iat_vr;60.031504534111455;
;;;;;;;;;;;001;JWFN90x;2019_Dec_10_1456;iat_vr;60.031504534111455;
6;BLUME;Natur;p;0;0;0;2;p;1;1.0589317999983905;001;JWFN90x;2019_Dec_10_1456;iat_vr;60.031504534111455;
6;SCHÄDLICH;negativ;q;0;1;1;13;q;1;0.6624458000005689;001;JWFN90x;2019_Dec_10_1456;iat_vr;60.031504534111455;
6;WASSER;Natur;p;0;2;2;1;p;1;1.0788908999966225;001;JWFN90x;2019_Dec_10_1456;iat_vr;60.031504534111455;
6;GUT;positiv;p;0;3;3;19;p;1;0.6825630999956047;001;JWFN90x;2019_Dec_10_1456;iat_vr;60.031504534111455;
6;POSITIV;positiv;p;0;4;4;18;p;1;0.6597406999935629;001;JWFN90x;2019_Dec_10_1456;iat_vr;60.031504534111455;
6;EINWANDFREI;positiv;p;0;5;5;16;p;1;0.6797710999962874;001;JWFN90x;2019_Dec_10_1456;iat_vr;60.031504534111455;
6;AUSGEZEICHNET;positiv;p;0;6;6;15;p;1;0.6100389000057476;001;JWFN90x;2019_Dec_10_1456;iat_vr;60.031504534111455;
6;LAMPE;Gemacht;q;0;7;7;9;q;1;0.6314583999919705;001;JWFN90x;2019_Dec_10_1456;iat_vr;60.031504534111455;
6;BAUM;Natur;p;0;8;8;0;p;1;0.6664535999880172;001;JWFN90x;2019_Dec_10_1456;iat_vr;60.031504534111455;
6;SCHLIMM;negativ;q;0;9;9;10;q;1;0.7144406000006711;001;JWFN90x;2019_Dec_10_1456;iat_vr;60.031504534111455;
6;SCHWACH;negativ;q;0;10;10;14;q;1;0.6633406000037212;001;JWFN90x;2019_Dec_10_1456;iat_vr;60.031504534111455;
6;STADT;Gemacht;q;0;11;11;6;q;1;0.5984449000097811;001;JWFN90x;2019_Dec_10_1456;iat_vr;60.031504534111455;
6;SCHLECHT;negativ;q;0;12;12;11;q;1;0.6976532999979099;001;JWFN90x;2019_Dec_10_1456;iat_vr;60.031504534111455;
6;TIER;Natur;p;0;13;13;3;p;1;0.6822668000095291;001;JWFN90x;2019_Dec_10_1456;iat_vr;60.031504534111455;
6;NEGATIV;negativ;q;0;14;14;12;q;1;0.7148049999959767;001;JWFN90x;2019_Dec_10_1456;iat_vr;60.031504534111455;
6;KLEIDER;Gemacht;q;0;15;15;7;p;0;0.8971957999892766;001;JWFN90x;2019_Dec_10_1456;iat_vr;60.031504534111455;
6;COMPUTER;Gemacht;q;0;16;16;8;q;1;1.2644302999979118;001;JWFN90x;2019_Dec_10_1456;iat_vr;60.031504534111455;
6;GEBÄUDE;Gemacht;q;0;17;17;5;q;1;0.6473538999998709;001;JWFN90x;2019_Dec_10_1456;iat_vr;60.031504534111455;
6;HERVORRAGEND;positiv;p;0;18;18;17;p;1;0.6276902999961749;001;JWFN90x;2019_Dec_10_1456;iat_vr;60.031504534111455;
6;STEIN;Natur;p;0;19;19;4;p;1;0.798541899988777;001;JWFN90x;2019_Dec_10_1456;iat_vr;60.031504534111455;
;;;;;;;;;;;001;JWFN90x;2019_Dec_10_1456;iat_vr;60.031504534111455;
7;WASSER;Natur;p;0;0;0;1;p;1;1.2720862999995006;001;JWFN90x;2019_Dec_10_1456;iat_vr;60.031504534111455;
7;STEIN;Natur;p;0;1;1;4;p;1;0.7302682000008645;001;JWFN90x;2019_Dec_10_1456;iat_vr;60.031504534111455;
7;GUT;positiv;p;0;2;2;19;p;1;0.5654697999998461;001;JWFN90x;2019_Dec_10_1456;iat_vr;60.031504534111455;
7;GEBÄUDE;Gemacht;q;0;3;3;5;q;1;0.6143477000005078;001;JWFN90x;2019_Dec_10_1456;iat_vr;60.031504534111455;
7;KLEIDER;Gemacht;q;0;4;4;7;p;0;0.5947063999919919;001;JWFN90x;2019_Dec_10_1456;iat_vr;60.031504534111455;
7;SCHWACH;negativ;q;0;5;5;14;q;1;0.8296210999978939;001;JWFN90x;2019_Dec_10_1456;iat_vr;60.031504534111455;
7;COMPUTER;Gemacht;q;0;6;6;8;q;1;0.5635584999981802;001;JWFN90x;2019_Dec_10_1456;iat_vr;60.031504534111455;
7;SCHLIMM;negativ;q;0;7;7;10;q;1;0.6019368999986909;001;JWFN90x;2019_Dec_10_1456;iat_vr;60.031504534111455;
7;LAMPE;Gemacht;q;0;8;8;9;q;1;0.6816809000010835;001;JWFN90x;2019_Dec_10_1456;iat_vr;60.031504534111455;
7;AUSGEZEICHNET;positiv;p;0;9;9;15;p;1;1.2776502999913646;001;JWFN90x;2019_Dec_10_1456;iat_vr;60.031504534111455;
7;SCHLECHT;negativ;q;0;10;10;11;q;1;0.6963599000009708;001;JWFN90x;2019_Dec_10_1456;iat_vr;60.031504534111455;
7;HERVORRAGEND;positiv;p;0;11;11;17;p;1;0.6786717000068165;001;JWFN90x;2019_Dec_10_1456;iat_vr;60.031504534111455;
7;POSITIV;positiv;p;0;12;12;18;p;1;0.8281197999895085;001;JWFN90x;2019_Dec_10_1456;iat_vr;60.031504534111455;
7;STADT;Gemacht;q;0;13;13;6;q;1;0.6149814000091283;001;JWFN90x;2019_Dec_10_1456;iat_vr;60.031504534111455;
7;SCHÄDLICH;negativ;q;0;14;14;13;q;1;0.6801780000096187;001;JWFN90x;2019_Dec_10_1456;iat_vr;60.031504534111455;
7;TIER;Natur;p;0;15;15;3;p;1;0.6791474000056041;001;JWFN90x;2019_Dec_10_1456;iat_vr;60.031504534111455;
7;EINWANDFREI;positiv;p;0;16;16;16;p;1;0.7133055000012973;001;JWFN90x;2019_Dec_10_1456;iat_vr;60.031504534111455;
7;BLUME;Natur;p;0;17;17;2;p;1;1.0981283000000985;001;JWFN90x;2019_Dec_10_1456;iat_vr;60.031504534111455;
7;BAUM;Natur;p;0;18;18;0;p;1;0.7641317000088748;001;JWFN90x;2019_Dec_10_1456;iat_vr;60.031504534111455;
7;NEGATIV;negativ;q;0;19;19;12;q;1;0.6316152999934275;001;JWFN90x;2019_Dec_10_1456;iat_vr;60.031504534111455;
7;GEBÄUDE;Gemacht;q;1;0;20;5;p;0;0.9782733000029111;001;JWFN90x;2019_Dec_10_1456;iat_vr;60.031504534111455;
7;KLEIDER;Gemacht;q;1;1;21;7;p;0;1.6816643000056501;001;JWFN90x;2019_Dec_10_1456;iat_vr;60.031504534111455;
7;EINWANDFREI;positiv;p;1;2;22;16;p;1;0.8192808000021614;001;JWFN90x;2019_Dec_10_1456;iat_vr;60.031504534111455;
7;GUT;positiv;p;1;3;23;19;p;1;0.602147600002354;001;JWFN90x;2019_Dec_10_1456;iat_vr;60.031504534111455;
7;BAUM;Natur;p;1;4;24;0;p;1;0.9650994000112405;001;JWFN90x;2019_Dec_10_1456;iat_vr;60.031504534111455;
7;SCHÄDLICH;negativ;q;1;5;25;13;q;1;0.8293849000037881;001;JWFN90x;2019_Dec_10_1456;iat_vr;60.031504534111455;
7;WASSER;Natur;p;1;6;26;1;p;1;0.6653136999957496;001;JWFN90x;2019_Dec_10_1456;iat_vr;60.031504534111455;
7;SCHWACH;negativ;q;1;7;27;14;q;1;1.197513599996455;001;JWFN90x;2019_Dec_10_1456;iat_vr;60.031504534111455;
7;COMPUTER;Gemacht;q;1;8;28;8;q;1;0.6475633000081871;001;JWFN90x;2019_Dec_10_1456;iat_vr;60.031504534111455;
7;STADT;Gemacht;q;1;9;29;6;q;1;0.7636894000024768;001;JWFN90x;2019_Dec_10_1456;iat_vr;60.031504534111455;
7;AUSGEZEICHNET;positiv;p;1;10;30;15;p;1;0.7457646999973804;001;JWFN90x;2019_Dec_10_1456;iat_vr;60.031504534111455;
7;SCHLIMM;negativ;q;1;11;31;10;q;1;0.933273000002373;001;JWFN90x;2019_Dec_10_1456;iat_vr;60.031504534111455;
7;NEGATIV;negativ;q;1;12;32;12;q;1;0.9439433000079589;001;JWFN90x;2019_Dec_10_1456;iat_vr;60.031504534111455;
7;BLUME;Natur;p;1;13;33;2;p;1;0.7013475000130711;001;JWFN90x;2019_Dec_10_1456;iat_vr;60.031504534111455;
7;POSITIV;positiv;p;1;14;34;18;p;1;0.8134742999973241;001;JWFN90x;2019_Dec_10_1456;iat_vr;60.031504534111455;
7;HERVORRAGEND;positiv;p;1;15;35;17;p;1;0.6128657999943243;001;JWFN90x;2019_Dec_10_1456;iat_vr;60.031504534111455;
7;SCHLECHT;negativ;q;1;16;36;11;q;1;0.581434799998533;001;JWFN90x;2019_Dec_10_1456;iat_vr;60.031504534111455;
7;STEIN;Natur;p;1;17;37;4;p;1;0.5805249999975786;001;JWFN90x;2019_Dec_10_1456;iat_vr;60.031504534111455;
7;TIER;Natur;p;1;18;38;3;p;1;0.5471607999934349;001;JWFN90x;2019_Dec_10_1456;iat_vr;60.031504534111455;
7;LAMPE;Gemacht;q;1;19;39;9;q;1;0.548519199990551;001;JWFN90x;2019_Dec_10_1456;iat_vr;60.031504534111455;
;;;;;;;;;;;001;JWFN90x;2019_Dec_10_1456;iat_vr;60.031504534111455;
