Block;Word;Category;CorrResp;trials.thisRepN;trials.thisTrialN;trials.thisN;trials.thisIndex;key_resp_2.keys;key_resp_2.corr;key_resp_2.rt;session;participant;date;expName;frameRate;
1;KLEIDER;Gemacht;p;0;0;0;7;p;1;2.8691857999947388;001;JWLB98x;2019_Dec_12_0803;iat_vr;60.46939976427247;
1;LAMPE;Gemacht;p;0;1;1;9;p;1;0.9250286000024062;001;JWLB98x;2019_Dec_12_0803;iat_vr;60.46939976427247;
1;BLUME;Natur;q;0;2;2;2;q;1;0.7933199999970384;001;JWLB98x;2019_Dec_12_0803;iat_vr;60.46939976427247;
1;WASSER;Natur;q;0;3;3;1;q;1;0.8078902999986894;001;JWLB98x;2019_Dec_12_0803;iat_vr;60.46939976427247;
1;GEBÄUDE;Gemacht;p;0;4;4;5;p;1;0.8242272000061348;001;JWLB98x;2019_Dec_12_0803;iat_vr;60.46939976427247;
1;BAUM;Natur;q;0;5;5;0;q;1;0.7701149999920744;001;JWLB98x;2019_Dec_12_0803;iat_vr;60.46939976427247;
1;COMPUTER;Gemacht;p;0;6;6;8;p;1;1.0016534000169486;001;JWLB98x;2019_Dec_12_0803;iat_vr;60.46939976427247;
1;STADT;Gemacht;p;0;7;7;6;p;1;0.8293222000065725;001;JWLB98x;2019_Dec_12_0803;iat_vr;60.46939976427247;
1;TIER;Natur;q;0;8;8;3;q;1;1.1805473000276834;001;JWLB98x;2019_Dec_12_0803;iat_vr;60.46939976427247;
1;STEIN;Natur;q;0;9;9;4;q;1;0.9410746000066865;001;JWLB98x;2019_Dec_12_0803;iat_vr;60.46939976427247;
1;BLUME;Natur;q;1;0;10;2;q;1;0.9317246999999043;001;JWLB98x;2019_Dec_12_0803;iat_vr;60.46939976427247;
1;BAUM;Natur;q;1;1;11;0;q;1;1.0487195999885444;001;JWLB98x;2019_Dec_12_0803;iat_vr;60.46939976427247;
1;TIER;Natur;q;1;2;12;3;q;1;0.9321843000070658;001;JWLB98x;2019_Dec_12_0803;iat_vr;60.46939976427247;
1;COMPUTER;Gemacht;p;1;3;13;8;p;1;0.663662300008582;001;JWLB98x;2019_Dec_12_0803;iat_vr;60.46939976427247;
1;STADT;Gemacht;p;1;4;14;6;p;1;1.0362704999861307;001;JWLB98x;2019_Dec_12_0803;iat_vr;60.46939976427247;
1;WASSER;Natur;q;1;5;15;1;q;1;0.8152991000097245;001;JWLB98x;2019_Dec_12_0803;iat_vr;60.46939976427247;
1;STEIN;Natur;q;1;6;16;4;q;1;0.8705888999975286;001;JWLB98x;2019_Dec_12_0803;iat_vr;60.46939976427247;
1;KLEIDER;Gemacht;p;1;7;17;7;p;1;0.7645847999956459;001;JWLB98x;2019_Dec_12_0803;iat_vr;60.46939976427247;
1;LAMPE;Gemacht;p;1;8;18;9;p;1;0.7357309999933932;001;JWLB98x;2019_Dec_12_0803;iat_vr;60.46939976427247;
1;GEBÄUDE;Gemacht;p;1;9;19;5;p;1;1.5471176000137348;001;JWLB98x;2019_Dec_12_0803;iat_vr;60.46939976427247;
;;;;;;;;;;;001;JWLB98x;2019_Dec_12_0803;iat_vr;60.46939976427247;
2;NEGATIV;negativ;q;0;0;0;2;q;1;1.3813020999950822;001;JWLB98x;2019_Dec_12_0803;iat_vr;60.46939976427247;
2;HERVORRAGEND;positiv;p;0;1;1;7;p;1;1.0135795999958646;001;JWLB98x;2019_Dec_12_0803;iat_vr;60.46939976427247;
2;POSITIV;positiv;p;0;2;2;8;p;1;1.1289843999838922;001;JWLB98x;2019_Dec_12_0803;iat_vr;60.46939976427247;
2;GUT;positiv;p;0;3;3;9;p;1;0.6499242999998387;001;JWLB98x;2019_Dec_12_0803;iat_vr;60.46939976427247;
2;SCHWACH;negativ;q;0;4;4;4;q;1;0.6187273999967147;001;JWLB98x;2019_Dec_12_0803;iat_vr;60.46939976427247;
2;SCHLIMM;negativ;q;0;5;5;0;q;1;0.7300216000003275;001;JWLB98x;2019_Dec_12_0803;iat_vr;60.46939976427247;
2;AUSGEZEICHNET;positiv;p;0;6;6;5;p;1;0.7379180999996606;001;JWLB98x;2019_Dec_12_0803;iat_vr;60.46939976427247;
2;SCHÄDLICH;negativ;q;0;7;7;3;q;1;0.8189002000144683;001;JWLB98x;2019_Dec_12_0803;iat_vr;60.46939976427247;
2;SCHLECHT;negativ;q;0;8;8;1;q;1;1.0479626999876928;001;JWLB98x;2019_Dec_12_0803;iat_vr;60.46939976427247;
2;EINWANDFREI;positiv;p;0;9;9;6;p;1;1.025845299998764;001;JWLB98x;2019_Dec_12_0803;iat_vr;60.46939976427247;
2;SCHLECHT;negativ;q;1;0;10;1;q;1;0.6956103999982588;001;JWLB98x;2019_Dec_12_0803;iat_vr;60.46939976427247;
2;SCHWACH;negativ;q;1;1;11;4;q;1;0.681020099989837;001;JWLB98x;2019_Dec_12_0803;iat_vr;60.46939976427247;
2;POSITIV;positiv;p;1;2;12;8;p;1;1.4456561999977566;001;JWLB98x;2019_Dec_12_0803;iat_vr;60.46939976427247;
2;GUT;positiv;p;1;3;13;9;p;1;0.6639477999997325;001;JWLB98x;2019_Dec_12_0803;iat_vr;60.46939976427247;
2;SCHLIMM;negativ;q;1;4;14;0;q;1;0.8152854999934789;001;JWLB98x;2019_Dec_12_0803;iat_vr;60.46939976427247;
2;EINWANDFREI;positiv;p;1;5;15;6;p;1;0.8852449999831151;001;JWLB98x;2019_Dec_12_0803;iat_vr;60.46939976427247;
2;SCHÄDLICH;negativ;q;1;6;16;3;q;1;1.19983699999284;001;JWLB98x;2019_Dec_12_0803;iat_vr;60.46939976427247;
2;HERVORRAGEND;positiv;p;1;7;17;7;p;1;0.8270217999815941;001;JWLB98x;2019_Dec_12_0803;iat_vr;60.46939976427247;
2;AUSGEZEICHNET;positiv;p;1;8;18;5;p;1;1.6614944000029936;001;JWLB98x;2019_Dec_12_0803;iat_vr;60.46939976427247;
2;NEGATIV;negativ;q;1;9;19;2;q;1;0.7483216999971773;001;JWLB98x;2019_Dec_12_0803;iat_vr;60.46939976427247;
;;;;;;;;;;;001;JWLB98x;2019_Dec_12_0803;iat_vr;60.46939976427247;
3;STADT;Gemacht;p;0;0;0;16;p;1;4.268202600011136;001;JWLB98x;2019_Dec_12_0803;iat_vr;60.46939976427247;
3;BAUM;Natur;q;0;1;1;10;q;1;1.6648325999849476;001;JWLB98x;2019_Dec_12_0803;iat_vr;60.46939976427247;
3;WASSER;Natur;q;0;2;2;11;q;1;1.2632080000184942;001;JWLB98x;2019_Dec_12_0803;iat_vr;60.46939976427247;
3;NEGATIV;negativ;q;0;3;3;2;q;1;1.5138217999774497;001;JWLB98x;2019_Dec_12_0803;iat_vr;60.46939976427247;
3;AUSGEZEICHNET;positiv;p;0;4;4;5;p;1;1.0620265000034124;001;JWLB98x;2019_Dec_12_0803;iat_vr;60.46939976427247;
3;BLUME;Natur;q;0;5;5;12;q;1;1.4129983000166249;001;JWLB98x;2019_Dec_12_0803;iat_vr;60.46939976427247;
3;LAMPE;Gemacht;p;0;6;6;19;p;1;3.379976699972758;001;JWLB98x;2019_Dec_12_0803;iat_vr;60.46939976427247;
3;HERVORRAGEND;positiv;p;0;7;7;7;p;1;2.4342572999885306;001;JWLB98x;2019_Dec_12_0803;iat_vr;60.46939976427247;
3;SCHLECHT;negativ;q;0;8;8;1;q;1;1.0122733999742195;001;JWLB98x;2019_Dec_12_0803;iat_vr;60.46939976427247;
3;GUT;positiv;p;0;9;9;9;p;1;1.1322329999820795;001;JWLB98x;2019_Dec_12_0803;iat_vr;60.46939976427247;
3;EINWANDFREI;positiv;p;0;10;10;6;p;1;2.1783075999992434;001;JWLB98x;2019_Dec_12_0803;iat_vr;60.46939976427247;
3;SCHLIMM;negativ;q;0;11;11;0;q;1;0.8316166000149678;001;JWLB98x;2019_Dec_12_0803;iat_vr;60.46939976427247;
3;GEBÄUDE;Gemacht;p;0;12;12;15;p;1;0.9144210999947973;001;JWLB98x;2019_Dec_12_0803;iat_vr;60.46939976427247;
3;KLEIDER;Gemacht;p;0;13;13;17;p;1;0.8502986000094097;001;JWLB98x;2019_Dec_12_0803;iat_vr;60.46939976427247;
3;SCHÄDLICH;negativ;q;0;14;14;3;q;1;0.9643703000037931;001;JWLB98x;2019_Dec_12_0803;iat_vr;60.46939976427247;
3;SCHWACH;negativ;q;0;15;15;4;q;1;0.7970404000079725;001;JWLB98x;2019_Dec_12_0803;iat_vr;60.46939976427247;
3;STEIN;Natur;q;0;16;16;14;q;1;0.7797891999944113;001;JWLB98x;2019_Dec_12_0803;iat_vr;60.46939976427247;
3;COMPUTER;Gemacht;p;0;17;17;18;p;1;0.7819121000065934;001;JWLB98x;2019_Dec_12_0803;iat_vr;60.46939976427247;
3;POSITIV;positiv;p;0;18;18;8;p;1;0.8325655999942683;001;JWLB98x;2019_Dec_12_0803;iat_vr;60.46939976427247;
3;TIER;Natur;q;0;19;19;13;q;1;0.731200699985493;001;JWLB98x;2019_Dec_12_0803;iat_vr;60.46939976427247;
;;;;;;;;;;;001;JWLB98x;2019_Dec_12_0803;iat_vr;60.46939976427247;
4;TIER;Natur;q;0;0;0;13;q;1;1.185025000013411;001;JWLB98x;2019_Dec_12_0803;iat_vr;60.46939976427247;
4;LAMPE;Gemacht;p;0;1;1;19;p;1;0.7650369000039063;001;JWLB98x;2019_Dec_12_0803;iat_vr;60.46939976427247;
4;STEIN;Natur;q;0;2;2;14;q;1;0.7816063000063878;001;JWLB98x;2019_Dec_12_0803;iat_vr;60.46939976427247;
4;BLUME;Natur;q;0;3;3;12;q;1;1.7952188999915961;001;JWLB98x;2019_Dec_12_0803;iat_vr;60.46939976427247;
4;WASSER;Natur;q;0;4;4;11;q;1;0.8333722000243142;001;JWLB98x;2019_Dec_12_0803;iat_vr;60.46939976427247;
4;SCHÄDLICH;negativ;q;0;5;5;3;q;1;0.8961226000101306;001;JWLB98x;2019_Dec_12_0803;iat_vr;60.46939976427247;
4;STADT;Gemacht;p;0;6;6;16;p;1;0.7301825000031386;001;JWLB98x;2019_Dec_12_0803;iat_vr;60.46939976427247;
4;GEBÄUDE;Gemacht;p;0;7;7;15;p;1;0.7806076999986544;001;JWLB98x;2019_Dec_12_0803;iat_vr;60.46939976427247;
4;SCHLIMM;negativ;q;0;8;8;0;q;1;0.6996946999861393;001;JWLB98x;2019_Dec_12_0803;iat_vr;60.46939976427247;
4;HERVORRAGEND;positiv;p;0;9;9;7;p;1;1.078928500006441;001;JWLB98x;2019_Dec_12_0803;iat_vr;60.46939976427247;
4;KLEIDER;Gemacht;p;0;10;10;17;q;0;1.0432595000020228;001;JWLB98x;2019_Dec_12_0803;iat_vr;60.46939976427247;
4;SCHLECHT;negativ;q;0;11;11;1;q;1;1.67970399998012;001;JWLB98x;2019_Dec_12_0803;iat_vr;60.46939976427247;
4;NEGATIV;negativ;q;0;12;12;2;q;1;0.8751616999797989;001;JWLB98x;2019_Dec_12_0803;iat_vr;60.46939976427247;
4;POSITIV;positiv;p;0;13;13;8;p;1;0.7300673999998253;001;JWLB98x;2019_Dec_12_0803;iat_vr;60.46939976427247;
4;COMPUTER;Gemacht;p;0;14;14;18;p;1;2.2638522000052035;001;JWLB98x;2019_Dec_12_0803;iat_vr;60.46939976427247;
4;SCHWACH;negativ;q;0;15;15;4;q;1;0.8181793999974616;001;JWLB98x;2019_Dec_12_0803;iat_vr;60.46939976427247;
4;EINWANDFREI;positiv;p;0;16;16;6;p;1;1.9110151000204496;001;JWLB98x;2019_Dec_12_0803;iat_vr;60.46939976427247;
4;BAUM;Natur;q;0;17;17;10;q;1;1.5487854999955744;001;JWLB98x;2019_Dec_12_0803;iat_vr;60.46939976427247;
4;GUT;positiv;p;0;18;18;9;p;1;1.415180199983297;001;JWLB98x;2019_Dec_12_0803;iat_vr;60.46939976427247;
4;AUSGEZEICHNET;positiv;p;0;19;19;5;p;1;0.9453436000039801;001;JWLB98x;2019_Dec_12_0803;iat_vr;60.46939976427247;
4;BLUME;Natur;q;1;0;20;12;q;1;0.8643768999900203;001;JWLB98x;2019_Dec_12_0803;iat_vr;60.46939976427247;
4;STEIN;Natur;q;1;1;21;14;q;1;1.1508536999754142;001;JWLB98x;2019_Dec_12_0803;iat_vr;60.46939976427247;
4;POSITIV;positiv;p;1;2;22;8;p;1;0.744751099991845;001;JWLB98x;2019_Dec_12_0803;iat_vr;60.46939976427247;
4;SCHLECHT;negativ;q;1;3;23;1;q;1;0.864002199989045;001;JWLB98x;2019_Dec_12_0803;iat_vr;60.46939976427247;
4;COMPUTER;Gemacht;p;1;4;24;18;p;1;0.6811945999797899;001;JWLB98x;2019_Dec_12_0803;iat_vr;60.46939976427247;
4;BAUM;Natur;q;1;5;25;10;q;1;1.0333815999911167;001;JWLB98x;2019_Dec_12_0803;iat_vr;60.46939976427247;
4;HERVORRAGEND;positiv;p;1;6;26;7;p;1;2.8975814000004902;001;JWLB98x;2019_Dec_12_0803;iat_vr;60.46939976427247;
4;SCHLIMM;negativ;q;1;7;27;0;q;1;0.6654312000027858;001;JWLB98x;2019_Dec_12_0803;iat_vr;60.46939976427247;
4;GEBÄUDE;Gemacht;p;1;8;28;15;p;1;0.7314362000033725;001;JWLB98x;2019_Dec_12_0803;iat_vr;60.46939976427247;
4;TIER;Natur;q;1;9;29;13;q;1;1.3328021000197623;001;JWLB98x;2019_Dec_12_0803;iat_vr;60.46939976427247;
4;WASSER;Natur;q;1;10;30;11;q;1;0.6153612999769393;001;JWLB98x;2019_Dec_12_0803;iat_vr;60.46939976427247;
4;AUSGEZEICHNET;positiv;p;1;11;31;5;p;1;0.8995285999844782;001;JWLB98x;2019_Dec_12_0803;iat_vr;60.46939976427247;
4;SCHÄDLICH;negativ;q;1;12;32;3;q;1;0.7427831999957561;001;JWLB98x;2019_Dec_12_0803;iat_vr;60.46939976427247;
4;SCHWACH;negativ;q;1;13;33;4;q;1;0.6309873000136577;001;JWLB98x;2019_Dec_12_0803;iat_vr;60.46939976427247;
4;EINWANDFREI;positiv;p;1;14;34;6;p;1;0.9962473000050522;001;JWLB98x;2019_Dec_12_0803;iat_vr;60.46939976427247;
4;KLEIDER;Gemacht;p;1;15;35;17;p;1;0.8985775000182912;001;JWLB98x;2019_Dec_12_0803;iat_vr;60.46939976427247;
4;STADT;Gemacht;p;1;16;36;16;p;1;0.5983741000236478;001;JWLB98x;2019_Dec_12_0803;iat_vr;60.46939976427247;
4;LAMPE;Gemacht;p;1;17;37;19;p;1;0.6463048000005074;001;JWLB98x;2019_Dec_12_0803;iat_vr;60.46939976427247;
4;NEGATIV;negativ;q;1;18;38;2;q;1;0.8524359000148252;001;JWLB98x;2019_Dec_12_0803;iat_vr;60.46939976427247;
4;GUT;positiv;p;1;19;39;9;p;1;0.646994699985953;001;JWLB98x;2019_Dec_12_0803;iat_vr;60.46939976427247;
;;;;;;;;;;;001;JWLB98x;2019_Dec_12_0803;iat_vr;60.46939976427247;
5;WASSER;Natur;p;0;0;0;1;p;1;1.5890368999971543;001;JWLB98x;2019_Dec_12_0803;iat_vr;60.46939976427247;
5;TIER;Natur;p;0;1;1;3;p;1;0.7989665000059176;001;JWLB98x;2019_Dec_12_0803;iat_vr;60.46939976427247;
5;BLUME;Natur;p;0;2;2;2;p;1;1.081840500002727;001;JWLB98x;2019_Dec_12_0803;iat_vr;60.46939976427247;
5;STEIN;Natur;p;0;3;3;4;p;1;0.8090750000264961;001;JWLB98x;2019_Dec_12_0803;iat_vr;60.46939976427247;
5;KLEIDER;Gemacht;q;0;4;4;7;q;1;0.6189083000062965;001;JWLB98x;2019_Dec_12_0803;iat_vr;60.46939976427247;
5;BAUM;Natur;p;0;5;5;0;p;1;1.0153494999976829;001;JWLB98x;2019_Dec_12_0803;iat_vr;60.46939976427247;
5;COMPUTER;Gemacht;q;0;6;6;8;q;1;0.8977608999994118;001;JWLB98x;2019_Dec_12_0803;iat_vr;60.46939976427247;
5;LAMPE;Gemacht;q;0;7;7;9;q;1;0.8809995999909006;001;JWLB98x;2019_Dec_12_0803;iat_vr;60.46939976427247;
5;GEBÄUDE;Gemacht;q;0;8;8;5;q;1;1.2964626999746542;001;JWLB98x;2019_Dec_12_0803;iat_vr;60.46939976427247;
5;STADT;Gemacht;q;0;9;9;6;q;1;0.8939982999872882;001;JWLB98x;2019_Dec_12_0803;iat_vr;60.46939976427247;
5;STADT;Gemacht;q;1;0;10;6;q;1;0.7329817999852821;001;JWLB98x;2019_Dec_12_0803;iat_vr;60.46939976427247;
5;BLUME;Natur;p;1;1;11;2;p;1;0.7519572000019252;001;JWLB98x;2019_Dec_12_0803;iat_vr;60.46939976427247;
5;BAUM;Natur;p;1;2;12;0;p;1;0.5983867000031751;001;JWLB98x;2019_Dec_12_0803;iat_vr;60.46939976427247;
5;COMPUTER;Gemacht;q;1;3;13;8;q;1;1.0298158999939915;001;JWLB98x;2019_Dec_12_0803;iat_vr;60.46939976427247;
5;TIER;Natur;p;1;4;14;3;p;1;0.5838744000066072;001;JWLB98x;2019_Dec_12_0803;iat_vr;60.46939976427247;
5;WASSER;Natur;p;1;5;15;1;q;0;0.8168367999896873;001;JWLB98x;2019_Dec_12_0803;iat_vr;60.46939976427247;
5;STEIN;Natur;p;1;6;16;4;p;1;4.8483631999988575;001;JWLB98x;2019_Dec_12_0803;iat_vr;60.46939976427247;
5;GEBÄUDE;Gemacht;q;1;7;17;5;q;1;0.7129603000066709;001;JWLB98x;2019_Dec_12_0803;iat_vr;60.46939976427247;
5;LAMPE;Gemacht;q;1;8;18;9;q;1;1.3699214999796823;001;JWLB98x;2019_Dec_12_0803;iat_vr;60.46939976427247;
5;KLEIDER;Gemacht;q;1;9;19;7;q;1;0.7011656000104267;001;JWLB98x;2019_Dec_12_0803;iat_vr;60.46939976427247;
;;;;;;;;;;;001;JWLB98x;2019_Dec_12_0803;iat_vr;60.46939976427247;
6;SCHLECHT;negativ;q;0;0;0;11;q;1;1.9777440000034403;001;JWLB98x;2019_Dec_12_0803;iat_vr;60.46939976427247;
6;STEIN;Natur;p;0;1;1;4;p;1;3.237672499992186;001;JWLB98x;2019_Dec_12_0803;iat_vr;60.46939976427247;
6;EINWANDFREI;positiv;p;0;2;2;16;p;1;0.9090305999852717;001;JWLB98x;2019_Dec_12_0803;iat_vr;60.46939976427247;
6;GUT;positiv;p;0;3;3;19;p;1;0.6998885000066366;001;JWLB98x;2019_Dec_12_0803;iat_vr;60.46939976427247;
6;WASSER;Natur;p;0;4;4;1;p;1;0.8297885000065435;001;JWLB98x;2019_Dec_12_0803;iat_vr;60.46939976427247;
6;LAMPE;Gemacht;q;0;5;5;9;q;1;0.7650692000170238;001;JWLB98x;2019_Dec_12_0803;iat_vr;60.46939976427247;
6;SCHLIMM;negativ;q;0;6;6;10;q;1;0.7151709999889135;001;JWLB98x;2019_Dec_12_0803;iat_vr;60.46939976427247;
6;AUSGEZEICHNET;positiv;p;0;7;7;15;p;1;0.8123536000202876;001;JWLB98x;2019_Dec_12_0803;iat_vr;60.46939976427247;
6;NEGATIV;negativ;q;0;8;8;12;q;1;0.7484730000142008;001;JWLB98x;2019_Dec_12_0803;iat_vr;60.46939976427247;
6;HERVORRAGEND;positiv;p;0;9;9;17;p;1;0.746309799986193;001;JWLB98x;2019_Dec_12_0803;iat_vr;60.46939976427247;
6;BLUME;Natur;p;0;10;10;2;p;1;0.90215390000958;001;JWLB98x;2019_Dec_12_0803;iat_vr;60.46939976427247;
6;GEBÄUDE;Gemacht;q;0;11;11;5;q;1;0.7852846000168938;001;JWLB98x;2019_Dec_12_0803;iat_vr;60.46939976427247;
6;STADT;Gemacht;q;0;12;12;6;p;0;0.5978246000013314;001;JWLB98x;2019_Dec_12_0803;iat_vr;60.46939976427247;
6;POSITIV;positiv;p;0;13;13;18;p;1;2.4465553000045475;001;JWLB98x;2019_Dec_12_0803;iat_vr;60.46939976427247;
6;SCHÄDLICH;negativ;q;0;14;14;13;q;1;0.6970710000023246;001;JWLB98x;2019_Dec_12_0803;iat_vr;60.46939976427247;
6;KLEIDER;Gemacht;q;0;15;15;7;q;1;0.8507282999926247;001;JWLB98x;2019_Dec_12_0803;iat_vr;60.46939976427247;
6;BAUM;Natur;p;0;16;16;0;p;1;0.6836773000250105;001;JWLB98x;2019_Dec_12_0803;iat_vr;60.46939976427247;
6;COMPUTER;Gemacht;q;0;17;17;8;q;1;0.7811310999968555;001;JWLB98x;2019_Dec_12_0803;iat_vr;60.46939976427247;
6;SCHWACH;negativ;q;0;18;18;14;q;1;0.9463180000020657;001;JWLB98x;2019_Dec_12_0803;iat_vr;60.46939976427247;
6;TIER;Natur;p;0;19;19;3;p;1;1.1318278999824543;001;JWLB98x;2019_Dec_12_0803;iat_vr;60.46939976427247;
;;;;;;;;;;;001;JWLB98x;2019_Dec_12_0803;iat_vr;60.46939976427247;
7;SCHWACH;negativ;q;0;0;0;14;q;1;0.7605180999962613;001;JWLB98x;2019_Dec_12_0803;iat_vr;60.46939976427247;
7;BAUM;Natur;p;0;1;1;0;p;1;0.765309000009438;001;JWLB98x;2019_Dec_12_0803;iat_vr;60.46939976427247;
7;AUSGEZEICHNET;positiv;p;0;2;2;15;p;1;0.5945237999840174;001;JWLB98x;2019_Dec_12_0803;iat_vr;60.46939976427247;
7;BLUME;Natur;p;0;3;3;2;p;1;0.5816609999747016;001;JWLB98x;2019_Dec_12_0803;iat_vr;60.46939976427247;
7;NEGATIV;negativ;q;0;4;4;12;q;1;0.6302455000113696;001;JWLB98x;2019_Dec_12_0803;iat_vr;60.46939976427247;
7;SCHÄDLICH;negativ;q;0;5;5;13;q;1;0.8275424000166822;001;JWLB98x;2019_Dec_12_0803;iat_vr;60.46939976427247;
7;HERVORRAGEND;positiv;p;0;6;6;17;p;1;0.662463899992872;001;JWLB98x;2019_Dec_12_0803;iat_vr;60.46939976427247;
7;KLEIDER;Gemacht;q;0;7;7;7;q;1;0.6634476000035647;001;JWLB98x;2019_Dec_12_0803;iat_vr;60.46939976427247;
7;WASSER;Natur;p;0;8;8;1;p;1;0.6186715999792796;001;JWLB98x;2019_Dec_12_0803;iat_vr;60.46939976427247;
7;GUT;positiv;p;0;9;9;19;p;1;0.7183909000013955;001;JWLB98x;2019_Dec_12_0803;iat_vr;60.46939976427247;
7;STEIN;Natur;p;0;10;10;4;p;1;0.7149910999869462;001;JWLB98x;2019_Dec_12_0803;iat_vr;60.46939976427247;
7;EINWANDFREI;positiv;p;0;11;11;16;p;1;0.6613219999999274;001;JWLB98x;2019_Dec_12_0803;iat_vr;60.46939976427247;
7;POSITIV;positiv;p;0;12;12;18;p;1;0.7644626999972388;001;JWLB98x;2019_Dec_12_0803;iat_vr;60.46939976427247;
7;GEBÄUDE;Gemacht;q;0;13;13;5;q;1;0.7317092999874149;001;JWLB98x;2019_Dec_12_0803;iat_vr;60.46939976427247;
7;LAMPE;Gemacht;q;0;14;14;9;p;0;0.5689199999906123;001;JWLB98x;2019_Dec_12_0803;iat_vr;60.46939976427247;
7;SCHLECHT;negativ;q;0;15;15;11;q;1;1.4279517999966629;001;JWLB98x;2019_Dec_12_0803;iat_vr;60.46939976427247;
7;STADT;Gemacht;q;0;16;16;6;q;1;0.6967115000006743;001;JWLB98x;2019_Dec_12_0803;iat_vr;60.46939976427247;
7;TIER;Natur;p;0;17;17;3;p;1;0.5984465999936219;001;JWLB98x;2019_Dec_12_0803;iat_vr;60.46939976427247;
7;SCHLIMM;negativ;q;0;18;18;10;q;1;0.6798150999820791;001;JWLB98x;2019_Dec_12_0803;iat_vr;60.46939976427247;
7;COMPUTER;Gemacht;q;0;19;19;8;q;1;1.2944345999858342;001;JWLB98x;2019_Dec_12_0803;iat_vr;60.46939976427247;
7;NEGATIV;negativ;q;1;0;20;12;q;1;0.9629878000123426;001;JWLB98x;2019_Dec_12_0803;iat_vr;60.46939976427247;
7;EINWANDFREI;positiv;p;1;1;21;16;p;1;0.7694361000030767;001;JWLB98x;2019_Dec_12_0803;iat_vr;60.46939976427247;
7;TIER;Natur;p;1;2;22;3;p;1;0.7287873000022955;001;JWLB98x;2019_Dec_12_0803;iat_vr;60.46939976427247;
7;STEIN;Natur;p;1;3;23;4;p;1;0.5988647000049241;001;JWLB98x;2019_Dec_12_0803;iat_vr;60.46939976427247;
7;SCHLECHT;negativ;q;1;4;24;11;q;1;0.5991385000234004;001;JWLB98x;2019_Dec_12_0803;iat_vr;60.46939976427247;
7;COMPUTER;Gemacht;q;1;5;25;8;q;1;1.0966664000006858;001;JWLB98x;2019_Dec_12_0803;iat_vr;60.46939976427247;
7;BLUME;Natur;p;1;6;26;2;p;1;0.7312726000091061;001;JWLB98x;2019_Dec_12_0803;iat_vr;60.46939976427247;
7;STADT;Gemacht;q;1;7;27;6;q;1;0.8532752000028268;001;JWLB98x;2019_Dec_12_0803;iat_vr;60.46939976427247;
7;KLEIDER;Gemacht;q;1;8;28;7;q;1;1.1105640000023413;001;JWLB98x;2019_Dec_12_0803;iat_vr;60.46939976427247;
7;GEBÄUDE;Gemacht;q;1;9;29;5;p;0;0.7641252999892458;001;JWLB98x;2019_Dec_12_0803;iat_vr;60.46939976427247;
7;BAUM;Natur;p;1;10;30;0;p;1;3.030253300006734;001;JWLB98x;2019_Dec_12_0803;iat_vr;60.46939976427247;
7;GUT;positiv;p;1;11;31;19;p;1;0.6858171000203583;001;JWLB98x;2019_Dec_12_0803;iat_vr;60.46939976427247;
7;AUSGEZEICHNET;positiv;p;1;12;32;15;p;1;1.589350900001591;001;JWLB98x;2019_Dec_12_0803;iat_vr;60.46939976427247;
7;POSITIV;positiv;p;1;13;33;18;p;1;0.7655309000110719;001;JWLB98x;2019_Dec_12_0803;iat_vr;60.46939976427247;
7;SCHWACH;negativ;q;1;14;34;14;q;1;0.7299857999896631;001;JWLB98x;2019_Dec_12_0803;iat_vr;60.46939976427247;
7;HERVORRAGEND;positiv;p;1;15;35;17;p;1;0.994262099993648;001;JWLB98x;2019_Dec_12_0803;iat_vr;60.46939976427247;
7;WASSER;Natur;p;1;16;36;1;p;1;1.1982695999904536;001;JWLB98x;2019_Dec_12_0803;iat_vr;60.46939976427247;
7;LAMPE;Gemacht;q;1;17;37;9;q;1;1.2652902000118047;001;JWLB98x;2019_Dec_12_0803;iat_vr;60.46939976427247;
7;SCHÄDLICH;negativ;q;1;18;38;13;q;1;1.3806760000006761;001;JWLB98x;2019_Dec_12_0803;iat_vr;60.46939976427247;
7;SCHLIMM;negativ;q;1;19;39;10;q;1;0.562545399996452;001;JWLB98x;2019_Dec_12_0803;iat_vr;60.46939976427247;
;;;;;;;;;;;001;JWLB98x;2019_Dec_12_0803;iat_vr;60.46939976427247;
