Block;Word;Category;CorrResp;trials.thisRepN;trials.thisTrialN;trials.thisN;trials.thisIndex;key_resp_2.keys;key_resp_2.corr;key_resp_2.rt;session;participant;date;expName;frameRate;
1;BLUME;Natur;q;0;0;0;2;q;1;2.029539200011641;002;JWNW94x;2019_Dec_10_1733;iat_vr;59.49108942616284;
1;GEBÄUDE;Gemacht;p;0;1;1;5;p;1;1.6875029999937396;002;JWNW94x;2019_Dec_10_1733;iat_vr;59.49108942616284;
1;COMPUTER;Gemacht;p;0;2;2;8;p;1;4.618618699998478;002;JWNW94x;2019_Dec_10_1733;iat_vr;59.49108942616284;
1;WASSER;Natur;q;0;3;3;1;q;1;0.7735522000002675;002;JWNW94x;2019_Dec_10_1733;iat_vr;59.49108942616284;
1;LAMPE;Gemacht;p;0;4;4;9;p;1;1.3465221999940695;002;JWNW94x;2019_Dec_10_1733;iat_vr;59.49108942616284;
1;BAUM;Natur;q;0;5;5;0;q;1;0.6655492999998387;002;JWNW94x;2019_Dec_10_1733;iat_vr;59.49108942616284;
1;KLEIDER;Gemacht;p;0;6;6;7;p;1;0.7413499999966007;002;JWNW94x;2019_Dec_10_1733;iat_vr;59.49108942616284;
1;STEIN;Natur;q;0;7;7;4;q;1;0.8610622999985935;002;JWNW94x;2019_Dec_10_1733;iat_vr;59.49108942616284;
1;STADT;Gemacht;p;0;8;8;6;p;1;0.8480866000027163;002;JWNW94x;2019_Dec_10_1733;iat_vr;59.49108942616284;
1;TIER;Natur;q;0;9;9;3;q;1;2.1173492999951122;002;JWNW94x;2019_Dec_10_1733;iat_vr;59.49108942616284;
1;STADT;Gemacht;p;1;0;10;6;p;1;0.6519023000000743;002;JWNW94x;2019_Dec_10_1733;iat_vr;59.49108942616284;
1;BLUME;Natur;q;1;1;11;2;q;1;0.5665254999912577;002;JWNW94x;2019_Dec_10_1733;iat_vr;59.49108942616284;
1;STEIN;Natur;q;1;2;12;4;q;1;0.6642534999991767;002;JWNW94x;2019_Dec_10_1733;iat_vr;59.49108942616284;
1;WASSER;Natur;q;1;3;13;1;q;1;0.6313978000107454;002;JWNW94x;2019_Dec_10_1733;iat_vr;59.49108942616284;
1;BAUM;Natur;q;1;4;14;0;q;1;0.5983476999972481;002;JWNW94x;2019_Dec_10_1733;iat_vr;59.49108942616284;
1;KLEIDER;Gemacht;p;1;5;15;7;p;1;1.5456438999972306;002;JWNW94x;2019_Dec_10_1733;iat_vr;59.49108942616284;
1;COMPUTER;Gemacht;p;1;6;16;8;p;1;1.530714499996975;002;JWNW94x;2019_Dec_10_1733;iat_vr;59.49108942616284;
1;GEBÄUDE;Gemacht;p;1;7;17;5;p;1;0.864947399997618;002;JWNW94x;2019_Dec_10_1733;iat_vr;59.49108942616284;
1;LAMPE;Gemacht;p;1;8;18;9;p;1;0.847250199993141;002;JWNW94x;2019_Dec_10_1733;iat_vr;59.49108942616284;
1;TIER;Natur;q;1;9;19;3;q;1;0.5652323999966029;002;JWNW94x;2019_Dec_10_1733;iat_vr;59.49108942616284;
;;;;;;;;;;;002;JWNW94x;2019_Dec_10_1733;iat_vr;59.49108942616284;
2;AUSGEZEICHNET;positiv;p;0;0;0;5;p;1;1.1238737999956356;002;JWNW94x;2019_Dec_10_1733;iat_vr;59.49108942616284;
2;EINWANDFREI;positiv;p;0;1;1;6;p;1;1.0096278999990318;002;JWNW94x;2019_Dec_10_1733;iat_vr;59.49108942616284;
2;SCHÄDLICH;negativ;q;0;2;2;3;q;1;0.7618806999962544;002;JWNW94x;2019_Dec_10_1733;iat_vr;59.49108942616284;
2;SCHLECHT;negativ;q;0;3;3;1;q;1;0.6484133000049042;002;JWNW94x;2019_Dec_10_1733;iat_vr;59.49108942616284;
2;HERVORRAGEND;positiv;p;0;4;4;7;p;1;0.655857300007483;002;JWNW94x;2019_Dec_10_1733;iat_vr;59.49108942616284;
2;SCHLIMM;negativ;q;0;5;5;0;q;1;0.6977821000036784;002;JWNW94x;2019_Dec_10_1733;iat_vr;59.49108942616284;
2;POSITIV;positiv;p;0;6;6;8;p;1;1.078622799992445;002;JWNW94x;2019_Dec_10_1733;iat_vr;59.49108942616284;
2;GUT;positiv;p;0;7;7;9;p;1;0.8323939999972936;002;JWNW94x;2019_Dec_10_1733;iat_vr;59.49108942616284;
2;SCHWACH;negativ;q;0;8;8;4;q;1;0.6958235000056447;002;JWNW94x;2019_Dec_10_1733;iat_vr;59.49108942616284;
2;NEGATIV;negativ;q;0;9;9;2;q;1;0.6642829000047641;002;JWNW94x;2019_Dec_10_1733;iat_vr;59.49108942616284;
2;POSITIV;positiv;p;1;0;10;8;p;1;0.613300099998014;002;JWNW94x;2019_Dec_10_1733;iat_vr;59.49108942616284;
2;HERVORRAGEND;positiv;p;1;1;11;7;p;1;0.663291399992886;002;JWNW94x;2019_Dec_10_1733;iat_vr;59.49108942616284;
2;GUT;positiv;p;1;2;12;9;p;1;0.7014468999987002;002;JWNW94x;2019_Dec_10_1733;iat_vr;59.49108942616284;
2;EINWANDFREI;positiv;p;1;3;13;6;p;1;0.6264089000032982;002;JWNW94x;2019_Dec_10_1733;iat_vr;59.49108942616284;
2;SCHLIMM;negativ;q;1;4;14;0;q;1;0.6122824999911245;002;JWNW94x;2019_Dec_10_1733;iat_vr;59.49108942616284;
2;SCHWACH;negativ;q;1;5;15;4;q;1;0.7804032999993069;002;JWNW94x;2019_Dec_10_1733;iat_vr;59.49108942616284;
2;SCHÄDLICH;negativ;q;1;6;16;3;q;1;0.6966552000085358;002;JWNW94x;2019_Dec_10_1733;iat_vr;59.49108942616284;
2;NEGATIV;negativ;q;1;7;17;2;q;1;0.6465303000004496;002;JWNW94x;2019_Dec_10_1733;iat_vr;59.49108942616284;
2;AUSGEZEICHNET;positiv;p;1;8;18;5;p;1;0.8445376000017859;002;JWNW94x;2019_Dec_10_1733;iat_vr;59.49108942616284;
2;SCHLECHT;negativ;q;1;9;19;1;q;1;0.7301921999896877;002;JWNW94x;2019_Dec_10_1733;iat_vr;59.49108942616284;
;;;;;;;;;;;002;JWNW94x;2019_Dec_10_1733;iat_vr;59.49108942616284;
3;NEGATIV;negativ;q;0;0;0;2;q;1;1.6271284999966156;002;JWNW94x;2019_Dec_10_1733;iat_vr;59.49108942616284;
3;STADT;Gemacht;p;0;1;1;16;p;1;1.5975294999952894;002;JWNW94x;2019_Dec_10_1733;iat_vr;59.49108942616284;
3;STEIN;Natur;q;0;2;2;14;q;1;1.4315334999992047;002;JWNW94x;2019_Dec_10_1733;iat_vr;59.49108942616284;
3;POSITIV;positiv;p;0;3;3;8;p;1;0.7467028000100981;002;JWNW94x;2019_Dec_10_1733;iat_vr;59.49108942616284;
3;BAUM;Natur;q;0;4;4;10;q;1;1.615316299998085;002;JWNW94x;2019_Dec_10_1733;iat_vr;59.49108942616284;
3;SCHLIMM;negativ;q;0;5;5;0;q;1;0.8960928000014974;002;JWNW94x;2019_Dec_10_1733;iat_vr;59.49108942616284;
3;GEBÄUDE;Gemacht;p;0;6;6;15;p;1;1.1980527999985497;002;JWNW94x;2019_Dec_10_1733;iat_vr;59.49108942616284;
3;WASSER;Natur;q;0;7;7;11;q;1;0.7315491000044858;002;JWNW94x;2019_Dec_10_1733;iat_vr;59.49108942616284;
3;GUT;positiv;p;0;8;8;9;p;1;1.0495701000036206;002;JWNW94x;2019_Dec_10_1733;iat_vr;59.49108942616284;
3;COMPUTER;Gemacht;p;0;9;9;18;p;1;0.846565500003635;002;JWNW94x;2019_Dec_10_1733;iat_vr;59.49108942616284;
3;SCHWACH;negativ;q;0;10;10;4;q;1;0.713136400008807;002;JWNW94x;2019_Dec_10_1733;iat_vr;59.49108942616284;
3;LAMPE;Gemacht;p;0;11;11;19;p;1;1.1480407000053674;002;JWNW94x;2019_Dec_10_1733;iat_vr;59.49108942616284;
3;KLEIDER;Gemacht;p;0;12;12;17;p;1;0.6969022999983281;002;JWNW94x;2019_Dec_10_1733;iat_vr;59.49108942616284;
3;AUSGEZEICHNET;positiv;p;0;13;13;5;p;1;0.8273482999939006;002;JWNW94x;2019_Dec_10_1733;iat_vr;59.49108942616284;
3;EINWANDFREI;positiv;p;0;14;14;6;p;1;0.5198022999975365;002;JWNW94x;2019_Dec_10_1733;iat_vr;59.49108942616284;
3;HERVORRAGEND;positiv;p;0;15;15;7;p;1;0.5627146000042558;002;JWNW94x;2019_Dec_10_1733;iat_vr;59.49108942616284;
3;SCHLECHT;negativ;q;0;16;16;1;q;1;0.818355800001882;002;JWNW94x;2019_Dec_10_1733;iat_vr;59.49108942616284;
3;TIER;Natur;q;0;17;17;13;q;1;0.4989798000024166;002;JWNW94x;2019_Dec_10_1733;iat_vr;59.49108942616284;
3;BLUME;Natur;q;0;18;18;12;q;1;0.481794200008153;002;JWNW94x;2019_Dec_10_1733;iat_vr;59.49108942616284;
3;SCHÄDLICH;negativ;q;0;19;19;3;q;1;0.7621820000058506;002;JWNW94x;2019_Dec_10_1733;iat_vr;59.49108942616284;
;;;;;;;;;;;002;JWNW94x;2019_Dec_10_1733;iat_vr;59.49108942616284;
4;BAUM;Natur;q;0;0;0;10;p;0;1.773992400005227;002;JWNW94x;2019_Dec_10_1733;iat_vr;59.49108942616284;
4;STADT;Gemacht;p;0;1;1;16;p;1;2.5142043999949237;002;JWNW94x;2019_Dec_10_1733;iat_vr;59.49108942616284;
4;GUT;positiv;p;0;2;2;9;p;1;0.8359065999975428;002;JWNW94x;2019_Dec_10_1733;iat_vr;59.49108942616284;
4;GEBÄUDE;Gemacht;p;0;3;3;15;p;1;0.7637218000018038;002;JWNW94x;2019_Dec_10_1733;iat_vr;59.49108942616284;
4;SCHLECHT;negativ;q;0;4;4;1;q;1;1.1517011999967508;002;JWNW94x;2019_Dec_10_1733;iat_vr;59.49108942616284;
4;COMPUTER;Gemacht;p;0;5;5;18;q;0;0.8187270000053104;002;JWNW94x;2019_Dec_10_1733;iat_vr;59.49108942616284;
4;BLUME;Natur;q;0;6;6;12;q;1;3.2484769000002416;002;JWNW94x;2019_Dec_10_1733;iat_vr;59.49108942616284;
4;HERVORRAGEND;positiv;p;0;7;7;7;p;1;0.9616067999886582;002;JWNW94x;2019_Dec_10_1733;iat_vr;59.49108942616284;
4;WASSER;Natur;q;0;8;8;11;q;1;3.510775899994769;002;JWNW94x;2019_Dec_10_1733;iat_vr;59.49108942616284;
4;AUSGEZEICHNET;positiv;p;0;9;9;5;p;1;0.9288033000048017;002;JWNW94x;2019_Dec_10_1733;iat_vr;59.49108942616284;
4;TIER;Natur;q;0;10;10;13;q;1;1.0319026000070153;002;JWNW94x;2019_Dec_10_1733;iat_vr;59.49108942616284;
4;SCHLIMM;negativ;q;0;11;11;0;q;1;0.7969042000040645;002;JWNW94x;2019_Dec_10_1733;iat_vr;59.49108942616284;
4;STEIN;Natur;q;0;12;12;14;q;1;0.8969099999958416;002;JWNW94x;2019_Dec_10_1733;iat_vr;59.49108942616284;
4;LAMPE;Gemacht;p;0;13;13;19;p;1;0.680923799998709;002;JWNW94x;2019_Dec_10_1733;iat_vr;59.49108942616284;
4;EINWANDFREI;positiv;p;0;14;14;6;p;1;2.162304800003767;002;JWNW94x;2019_Dec_10_1733;iat_vr;59.49108942616284;
4;KLEIDER;Gemacht;p;0;15;15;17;p;1;0.8622163999971235;002;JWNW94x;2019_Dec_10_1733;iat_vr;59.49108942616284;
4;POSITIV;positiv;p;0;16;16;8;p;1;0.5137291999999434;002;JWNW94x;2019_Dec_10_1733;iat_vr;59.49108942616284;
4;NEGATIV;negativ;q;0;17;17;2;p;0;0.5288236999913352;002;JWNW94x;2019_Dec_10_1733;iat_vr;59.49108942616284;
4;SCHÄDLICH;negativ;q;0;18;18;3;q;1;2.313984899999923;002;JWNW94x;2019_Dec_10_1733;iat_vr;59.49108942616284;
4;SCHWACH;negativ;q;0;19;19;4;q;1;0.7093107999971835;002;JWNW94x;2019_Dec_10_1733;iat_vr;59.49108942616284;
4;BLUME;Natur;q;1;0;20;12;q;1;1.2485897000005934;002;JWNW94x;2019_Dec_10_1733;iat_vr;59.49108942616284;
4;GUT;positiv;p;1;1;21;9;p;1;0.6512992999923881;002;JWNW94x;2019_Dec_10_1733;iat_vr;59.49108942616284;
4;POSITIV;positiv;p;1;2;22;8;p;1;0.6145924000011291;002;JWNW94x;2019_Dec_10_1733;iat_vr;59.49108942616284;
4;LAMPE;Gemacht;p;1;3;23;19;p;1;0.6989237999951001;002;JWNW94x;2019_Dec_10_1733;iat_vr;59.49108942616284;
4;BAUM;Natur;q;1;4;24;10;q;1;0.7466322000109358;002;JWNW94x;2019_Dec_10_1733;iat_vr;59.49108942616284;
4;GEBÄUDE;Gemacht;p;1;5;25;15;p;1;1.4795218000072055;002;JWNW94x;2019_Dec_10_1733;iat_vr;59.49108942616284;
4;SCHLIMM;negativ;q;1;6;26;0;q;1;0.8976508000050671;002;JWNW94x;2019_Dec_10_1733;iat_vr;59.49108942616284;
4;SCHÄDLICH;negativ;q;1;7;27;3;q;1;2.5975285999884363;002;JWNW94x;2019_Dec_10_1733;iat_vr;59.49108942616284;
4;COMPUTER;Gemacht;p;1;8;28;18;p;1;0.8471463000023505;002;JWNW94x;2019_Dec_10_1733;iat_vr;59.49108942616284;
4;HERVORRAGEND;positiv;p;1;9;29;7;p;1;0.7189250999945216;002;JWNW94x;2019_Dec_10_1733;iat_vr;59.49108942616284;
4;STEIN;Natur;q;1;10;30;14;q;1;0.7949440999946091;002;JWNW94x;2019_Dec_10_1733;iat_vr;59.49108942616284;
4;SCHWACH;negativ;q;1;11;31;4;q;1;1.3499318999965908;002;JWNW94x;2019_Dec_10_1733;iat_vr;59.49108942616284;
4;KLEIDER;Gemacht;p;1;12;32;17;p;1;1.0258838000008836;002;JWNW94x;2019_Dec_10_1733;iat_vr;59.49108942616284;
4;EINWANDFREI;positiv;p;1;13;33;6;p;1;1.8292689000081737;002;JWNW94x;2019_Dec_10_1733;iat_vr;59.49108942616284;
4;WASSER;Natur;q;1;14;34;11;q;1;0.851743199993507;002;JWNW94x;2019_Dec_10_1733;iat_vr;59.49108942616284;
4;SCHLECHT;negativ;q;1;15;35;1;q;1;1.7467859999887878;002;JWNW94x;2019_Dec_10_1733;iat_vr;59.49108942616284;
4;STADT;Gemacht;p;1;16;36;16;p;1;0.8974570999998832;002;JWNW94x;2019_Dec_10_1733;iat_vr;59.49108942616284;
4;AUSGEZEICHNET;positiv;p;1;17;37;5;p;1;0.7603955999948084;002;JWNW94x;2019_Dec_10_1733;iat_vr;59.49108942616284;
4;TIER;Natur;q;1;18;38;13;q;1;0.9319470999907935;002;JWNW94x;2019_Dec_10_1733;iat_vr;59.49108942616284;
4;NEGATIV;negativ;q;1;19;39;2;q;1;0.8309922000044025;002;JWNW94x;2019_Dec_10_1733;iat_vr;59.49108942616284;
;;;;;;;;;;;002;JWNW94x;2019_Dec_10_1733;iat_vr;59.49108942616284;
5;BAUM;Natur;p;0;0;0;0;p;1;1.3532340000092518;002;JWNW94x;2019_Dec_10_1733;iat_vr;59.49108942616284;
5;BLUME;Natur;p;0;1;1;2;p;1;0.5320704000041587;002;JWNW94x;2019_Dec_10_1733;iat_vr;59.49108942616284;
5;LAMPE;Gemacht;q;0;2;2;9;q;1;0.7318787999975029;002;JWNW94x;2019_Dec_10_1733;iat_vr;59.49108942616284;
5;COMPUTER;Gemacht;q;0;3;3;8;q;1;0.6809675000113202;002;JWNW94x;2019_Dec_10_1733;iat_vr;59.49108942616284;
5;GEBÄUDE;Gemacht;q;0;4;4;5;q;1;1.2308205000008456;002;JWNW94x;2019_Dec_10_1733;iat_vr;59.49108942616284;
5;TIER;Natur;p;0;5;5;3;p;1;0.8810145000024932;002;JWNW94x;2019_Dec_10_1733;iat_vr;59.49108942616284;
5;KLEIDER;Gemacht;q;0;6;6;7;q;1;1.1635950000054436;002;JWNW94x;2019_Dec_10_1733;iat_vr;59.49108942616284;
5;STEIN;Natur;p;0;7;7;4;p;1;0.7131521999981487;002;JWNW94x;2019_Dec_10_1733;iat_vr;59.49108942616284;
5;STADT;Gemacht;q;0;8;8;6;q;1;0.6320226000098046;002;JWNW94x;2019_Dec_10_1733;iat_vr;59.49108942616284;
5;WASSER;Natur;p;0;9;9;1;p;1;0.7107646000076784;002;JWNW94x;2019_Dec_10_1733;iat_vr;59.49108942616284;
5;KLEIDER;Gemacht;q;1;0;10;7;q;1;0.6299738999950932;002;JWNW94x;2019_Dec_10_1733;iat_vr;59.49108942616284;
5;STEIN;Natur;p;1;1;11;4;p;1;0.9151596000010613;002;JWNW94x;2019_Dec_10_1733;iat_vr;59.49108942616284;
5;TIER;Natur;p;1;2;12;3;p;1;1.1152202000084799;002;JWNW94x;2019_Dec_10_1733;iat_vr;59.49108942616284;
5;BLUME;Natur;p;1;3;13;2;p;1;0.5656070000113687;002;JWNW94x;2019_Dec_10_1733;iat_vr;59.49108942616284;
5;BAUM;Natur;p;1;4;14;0;p;1;0.6986137999920174;002;JWNW94x;2019_Dec_10_1733;iat_vr;59.49108942616284;
5;COMPUTER;Gemacht;q;1;5;15;8;q;1;0.6187376999878325;002;JWNW94x;2019_Dec_10_1733;iat_vr;59.49108942616284;
5;STADT;Gemacht;q;1;6;16;6;q;1;1.0074808999925153;002;JWNW94x;2019_Dec_10_1733;iat_vr;59.49108942616284;
5;LAMPE;Gemacht;q;1;7;17;9;q;1;0.7149138999957358;002;JWNW94x;2019_Dec_10_1733;iat_vr;59.49108942616284;
5;WASSER;Natur;p;1;8;18;1;p;1;0.7291824999992969;002;JWNW94x;2019_Dec_10_1733;iat_vr;59.49108942616284;
5;GEBÄUDE;Gemacht;q;1;9;19;5;q;1;0.6631235999957426;002;JWNW94x;2019_Dec_10_1733;iat_vr;59.49108942616284;
;;;;;;;;;;;002;JWNW94x;2019_Dec_10_1733;iat_vr;59.49108942616284;
6;BLUME;Natur;p;0;0;0;2;p;1;1.1221927000005962;002;JWNW94x;2019_Dec_10_1733;iat_vr;59.49108942616284;
6;EINWANDFREI;positiv;p;0;1;1;16;p;1;0.8133777999901213;002;JWNW94x;2019_Dec_10_1733;iat_vr;59.49108942616284;
6;AUSGEZEICHNET;positiv;p;0;2;2;15;p;1;0.6606328000052599;002;JWNW94x;2019_Dec_10_1733;iat_vr;59.49108942616284;
6;COMPUTER;Gemacht;q;0;3;3;8;q;1;0.7017051000002539;002;JWNW94x;2019_Dec_10_1733;iat_vr;59.49108942616284;
6;GEBÄUDE;Gemacht;q;0;4;4;5;q;1;0.6476761999947485;002;JWNW94x;2019_Dec_10_1733;iat_vr;59.49108942616284;
6;TIER;Natur;p;0;5;5;3;p;1;0.6820750000042608;002;JWNW94x;2019_Dec_10_1733;iat_vr;59.49108942616284;
6;KLEIDER;Gemacht;q;0;6;6;7;q;1;0.6475400000053924;002;JWNW94x;2019_Dec_10_1733;iat_vr;59.49108942616284;
6;SCHLIMM;negativ;q;0;7;7;10;q;1;0.6846247999928892;002;JWNW94x;2019_Dec_10_1733;iat_vr;59.49108942616284;
6;SCHLECHT;negativ;q;0;8;8;11;q;1;0.660779800004093;002;JWNW94x;2019_Dec_10_1733;iat_vr;59.49108942616284;
6;NEGATIV;negativ;q;0;9;9;12;q;1;0.4783442999905674;002;JWNW94x;2019_Dec_10_1733;iat_vr;59.49108942616284;
6;SCHÄDLICH;negativ;q;0;10;10;13;q;1;0.6968178999959491;002;JWNW94x;2019_Dec_10_1733;iat_vr;59.49108942616284;
6;STADT;Gemacht;q;0;11;11;6;q;1;0.7820787999953609;002;JWNW94x;2019_Dec_10_1733;iat_vr;59.49108942616284;
6;SCHWACH;negativ;q;0;12;12;14;q;1;0.7130928999977186;002;JWNW94x;2019_Dec_10_1733;iat_vr;59.49108942616284;
6;BAUM;Natur;p;0;13;13;0;p;1;0.6148506000026828;002;JWNW94x;2019_Dec_10_1733;iat_vr;59.49108942616284;
6;GUT;positiv;p;0;14;14;19;p;1;0.5327039000112563;002;JWNW94x;2019_Dec_10_1733;iat_vr;59.49108942616284;
6;HERVORRAGEND;positiv;p;0;15;15;17;p;1;0.5097309999982826;002;JWNW94x;2019_Dec_10_1733;iat_vr;59.49108942616284;
6;POSITIV;positiv;p;0;16;16;18;p;1;0.4955926999973599;002;JWNW94x;2019_Dec_10_1733;iat_vr;59.49108942616284;
6;LAMPE;Gemacht;q;0;17;17;9;q;1;0.6323704999958863;002;JWNW94x;2019_Dec_10_1733;iat_vr;59.49108942616284;
6;STEIN;Natur;p;0;18;18;4;p;1;0.764639699991676;002;JWNW94x;2019_Dec_10_1733;iat_vr;59.49108942616284;
6;WASSER;Natur;p;0;19;19;1;p;1;0.5305812000005972;002;JWNW94x;2019_Dec_10_1733;iat_vr;59.49108942616284;
;;;;;;;;;;;002;JWNW94x;2019_Dec_10_1733;iat_vr;59.49108942616284;
7;GEBÄUDE;Gemacht;q;0;0;0;5;q;1;1.0923534000030486;002;JWNW94x;2019_Dec_10_1733;iat_vr;59.49108942616284;
7;SCHLIMM;negativ;q;0;1;1;10;q;1;0.5315158000012161;002;JWNW94x;2019_Dec_10_1733;iat_vr;59.49108942616284;
7;SCHWACH;negativ;q;0;2;2;14;q;1;0.5151052000001073;002;JWNW94x;2019_Dec_10_1733;iat_vr;59.49108942616284;
7;COMPUTER;Gemacht;q;0;3;3;8;q;1;0.4956406999990577;002;JWNW94x;2019_Dec_10_1733;iat_vr;59.49108942616284;
7;STADT;Gemacht;q;0;4;4;6;q;1;0.6025129000045126;002;JWNW94x;2019_Dec_10_1733;iat_vr;59.49108942616284;
7;KLEIDER;Gemacht;q;0;5;5;7;q;1;0.5482004999939818;002;JWNW94x;2019_Dec_10_1733;iat_vr;59.49108942616284;
7;LAMPE;Gemacht;q;0;6;6;9;q;1;0.5817750999995042;002;JWNW94x;2019_Dec_10_1733;iat_vr;59.49108942616284;
7;HERVORRAGEND;positiv;p;0;7;7;17;p;1;0.7503805999876931;002;JWNW94x;2019_Dec_10_1733;iat_vr;59.49108942616284;
7;AUSGEZEICHNET;positiv;p;0;8;8;15;p;1;0.6618945999944117;002;JWNW94x;2019_Dec_10_1733;iat_vr;59.49108942616284;
7;NEGATIV;negativ;q;0;9;9;12;q;1;0.5643590999970911;002;JWNW94x;2019_Dec_10_1733;iat_vr;59.49108942616284;
7;STEIN;Natur;p;0;10;10;4;p;1;0.6001147000060882;002;JWNW94x;2019_Dec_10_1733;iat_vr;59.49108942616284;
7;SCHLECHT;negativ;q;0;11;11;11;q;1;0.4967709000047762;002;JWNW94x;2019_Dec_10_1733;iat_vr;59.49108942616284;
7;TIER;Natur;p;0;12;12;3;p;1;0.4985446999926353;002;JWNW94x;2019_Dec_10_1733;iat_vr;59.49108942616284;
7;EINWANDFREI;positiv;p;0;13;13;16;q;0;0.6296145999949658;002;JWNW94x;2019_Dec_10_1733;iat_vr;59.49108942616284;
7;SCHÄDLICH;negativ;q;0;14;14;13;q;1;1.0956646000122419;002;JWNW94x;2019_Dec_10_1733;iat_vr;59.49108942616284;
7;WASSER;Natur;p;0;15;15;1;p;1;0.7484136000130093;002;JWNW94x;2019_Dec_10_1733;iat_vr;59.49108942616284;
7;BLUME;Natur;p;0;16;16;2;p;1;0.6949053999996977;002;JWNW94x;2019_Dec_10_1733;iat_vr;59.49108942616284;
7;BAUM;Natur;p;0;17;17;0;p;1;0.6183358999987831;002;JWNW94x;2019_Dec_10_1733;iat_vr;59.49108942616284;
7;POSITIV;positiv;p;0;18;18;18;p;1;0.5668698000081349;002;JWNW94x;2019_Dec_10_1733;iat_vr;59.49108942616284;
7;GUT;positiv;p;0;19;19;19;p;1;0.5834443000057945;002;JWNW94x;2019_Dec_10_1733;iat_vr;59.49108942616284;
7;SCHLECHT;negativ;q;1;0;20;11;q;1;0.6337385999941034;002;JWNW94x;2019_Dec_10_1733;iat_vr;59.49108942616284;
7;SCHLIMM;negativ;q;1;1;21;10;q;1;0.8858251000056043;002;JWNW94x;2019_Dec_10_1733;iat_vr;59.49108942616284;
7;GEBÄUDE;Gemacht;q;1;2;22;5;q;1;0.7268367999931797;002;JWNW94x;2019_Dec_10_1733;iat_vr;59.49108942616284;
7;EINWANDFREI;positiv;p;1;3;23;16;p;1;0.8612198000046192;002;JWNW94x;2019_Dec_10_1733;iat_vr;59.49108942616284;
7;POSITIV;positiv;p;1;4;24;18;p;1;0.7478591000108281;002;JWNW94x;2019_Dec_10_1733;iat_vr;59.49108942616284;
7;KLEIDER;Gemacht;q;1;5;25;7;q;1;0.8154790999979014;002;JWNW94x;2019_Dec_10_1733;iat_vr;59.49108942616284;
7;COMPUTER;Gemacht;q;1;6;26;8;q;1;0.6457202000019606;002;JWNW94x;2019_Dec_10_1733;iat_vr;59.49108942616284;
7;SCHWACH;negativ;q;1;7;27;14;q;1;1.0296631999954116;002;JWNW94x;2019_Dec_10_1733;iat_vr;59.49108942616284;
7;HERVORRAGEND;positiv;p;1;8;28;17;p;1;0.8429519000055734;002;JWNW94x;2019_Dec_10_1733;iat_vr;59.49108942616284;
7;NEGATIV;negativ;q;1;9;29;12;q;1;0.7634047999890754;002;JWNW94x;2019_Dec_10_1733;iat_vr;59.49108942616284;
7;TIER;Natur;p;1;10;30;3;p;1;1.2189744999923278;002;JWNW94x;2019_Dec_10_1733;iat_vr;59.49108942616284;
7;SCHÄDLICH;negativ;q;1;11;31;13;q;1;0.5807015000027604;002;JWNW94x;2019_Dec_10_1733;iat_vr;59.49108942616284;
7;GUT;positiv;p;1;12;32;19;p;1;0.518775899996399;002;JWNW94x;2019_Dec_10_1733;iat_vr;59.49108942616284;
7;STEIN;Natur;p;1;13;33;4;p;1;0.6821280000003753;002;JWNW94x;2019_Dec_10_1733;iat_vr;59.49108942616284;
7;BLUME;Natur;p;1;14;34;2;p;1;0.44775530000333674;002;JWNW94x;2019_Dec_10_1733;iat_vr;59.49108942616284;
7;BAUM;Natur;p;1;15;35;0;p;1;0.5472172000008868;002;JWNW94x;2019_Dec_10_1733;iat_vr;59.49108942616284;
7;STADT;Gemacht;q;1;16;36;6;q;1;0.6310057999944547;002;JWNW94x;2019_Dec_10_1733;iat_vr;59.49108942616284;
7;AUSGEZEICHNET;positiv;p;1;17;37;15;p;1;0.9585722999909194;002;JWNW94x;2019_Dec_10_1733;iat_vr;59.49108942616284;
7;WASSER;Natur;p;1;18;38;1;p;1;0.5479787000076612;002;JWNW94x;2019_Dec_10_1733;iat_vr;59.49108942616284;
7;LAMPE;Gemacht;q;1;19;39;9;q;1;1.4188592999998946;002;JWNW94x;2019_Dec_10_1733;iat_vr;59.49108942616284;
;;;;;;;;;;;002;JWNW94x;2019_Dec_10_1733;iat_vr;59.49108942616284;
