Block;Word;Category;CorrResp;trials.thisRepN;trials.thisTrialN;trials.thisN;trials.thisIndex;key_resp_2.keys;key_resp_2.corr;key_resp_2.rt;session;participant;date;expName;frameRate;
1;WASSER;Natur;q;0;0;0;1;q;1;2.9457796999486163;001;JWYA97x;2019_Dec_13_1454;iat_vr;60.028189228686124;
1;LAMPE;Gemacht;p;0;1;1;9;p;1;1.205944300047122;001;JWYA97x;2019_Dec_13_1454;iat_vr;60.028189228686124;
1;BLUME;Natur;q;0;2;2;2;q;1;0.6411982999998145;001;JWYA97x;2019_Dec_13_1454;iat_vr;60.028189228686124;
1;COMPUTER;Gemacht;p;0;3;3;8;p;1;1.0701895999955013;001;JWYA97x;2019_Dec_13_1454;iat_vr;60.028189228686124;
1;STEIN;Natur;q;0;4;4;4;q;1;0.825295000046026;001;JWYA97x;2019_Dec_13_1454;iat_vr;60.028189228686124;
1;KLEIDER;Gemacht;p;0;5;5;7;p;1;0.6258539000409655;001;JWYA97x;2019_Dec_13_1454;iat_vr;60.028189228686124;
1;BAUM;Natur;q;0;6;6;0;q;1;0.7296122000552714;001;JWYA97x;2019_Dec_13_1454;iat_vr;60.028189228686124;
1;GEBÄUDE;Gemacht;p;0;7;7;5;p;1;0.5895960999769159;001;JWYA97x;2019_Dec_13_1454;iat_vr;60.028189228686124;
1;TIER;Natur;q;0;8;8;3;q;1;0.7819468999514356;001;JWYA97x;2019_Dec_13_1454;iat_vr;60.028189228686124;
1;STADT;Gemacht;p;0;9;9;6;p;1;0.6150487000122666;001;JWYA97x;2019_Dec_13_1454;iat_vr;60.028189228686124;
1;STADT;Gemacht;p;1;0;10;6;p;1;0.6172334000002593;001;JWYA97x;2019_Dec_13_1454;iat_vr;60.028189228686124;
1;BLUME;Natur;q;1;1;11;2;q;1;0.7104186000069603;001;JWYA97x;2019_Dec_13_1454;iat_vr;60.028189228686124;
1;KLEIDER;Gemacht;p;1;2;12;7;p;1;0.9144812999875285;001;JWYA97x;2019_Dec_13_1454;iat_vr;60.028189228686124;
1;WASSER;Natur;q;1;3;13;1;q;1;0.6803422999801114;001;JWYA97x;2019_Dec_13_1454;iat_vr;60.028189228686124;
1;TIER;Natur;q;1;4;14;3;p;0;0.7803380999830551;001;JWYA97x;2019_Dec_13_1454;iat_vr;60.028189228686124;
1;COMPUTER;Gemacht;p;1;5;15;8;q;0;0.07369400002062321;001;JWYA97x;2019_Dec_13_1454;iat_vr;60.028189228686124;
1;LAMPE;Gemacht;p;1;6;16;9;p;1;1.7644918999867514;001;JWYA97x;2019_Dec_13_1454;iat_vr;60.028189228686124;
1;BAUM;Natur;q;1;7;17;0;q;1;0.9492130000144243;001;JWYA97x;2019_Dec_13_1454;iat_vr;60.028189228686124;
1;GEBÄUDE;Gemacht;p;1;8;18;5;p;1;0.7383334999904037;001;JWYA97x;2019_Dec_13_1454;iat_vr;60.028189228686124;
1;STEIN;Natur;q;1;9;19;4;q;1;1.064929399988614;001;JWYA97x;2019_Dec_13_1454;iat_vr;60.028189228686124;
;;;;;;;;;;;001;JWYA97x;2019_Dec_13_1454;iat_vr;60.028189228686124;
2;SCHWACH;negativ;q;0;0;0;4;q;1;1.4375125999795273;001;JWYA97x;2019_Dec_13_1454;iat_vr;60.028189228686124;
2;HERVORRAGEND;positiv;p;0;1;1;7;p;1;1.0893070999882184;001;JWYA97x;2019_Dec_13_1454;iat_vr;60.028189228686124;
2;SCHLIMM;negativ;q;0;2;2;0;q;1;1.8140726999845356;001;JWYA97x;2019_Dec_13_1454;iat_vr;60.028189228686124;
2;GUT;positiv;p;0;3;3;9;p;1;1.2655282999621704;001;JWYA97x;2019_Dec_13_1454;iat_vr;60.028189228686124;
2;SCHLECHT;negativ;q;0;4;4;1;q;1;0.698681200039573;001;JWYA97x;2019_Dec_13_1454;iat_vr;60.028189228686124;
2;POSITIV;positiv;p;0;5;5;8;p;1;0.597484199970495;001;JWYA97x;2019_Dec_13_1454;iat_vr;60.028189228686124;
2;AUSGEZEICHNET;positiv;p;0;6;6;5;p;1;0.7710263999761082;001;JWYA97x;2019_Dec_13_1454;iat_vr;60.028189228686124;
2;EINWANDFREI;positiv;p;0;7;7;6;p;1;1.2103144000284374;001;JWYA97x;2019_Dec_13_1454;iat_vr;60.028189228686124;
2;SCHÄDLICH;negativ;q;0;8;8;3;q;1;0.763702199968975;001;JWYA97x;2019_Dec_13_1454;iat_vr;60.028189228686124;
2;NEGATIV;negativ;q;0;9;9;2;q;1;0.6473383999546058;001;JWYA97x;2019_Dec_13_1454;iat_vr;60.028189228686124;
2;HERVORRAGEND;positiv;p;1;0;10;7;p;1;0.879248000041116;001;JWYA97x;2019_Dec_13_1454;iat_vr;60.028189228686124;
2;EINWANDFREI;positiv;p;1;1;11;6;p;1;0.8804054000065662;001;JWYA97x;2019_Dec_13_1454;iat_vr;60.028189228686124;
2;SCHLECHT;negativ;q;1;2;12;1;q;1;0.6790078000049107;001;JWYA97x;2019_Dec_13_1454;iat_vr;60.028189228686124;
2;SCHLIMM;negativ;q;1;3;13;0;q;1;0.6976808999897912;001;JWYA97x;2019_Dec_13_1454;iat_vr;60.028189228686124;
2;AUSGEZEICHNET;positiv;p;1;4;14;5;p;1;0.6763175000087358;001;JWYA97x;2019_Dec_13_1454;iat_vr;60.028189228686124;
2;NEGATIV;negativ;q;1;5;15;2;q;1;0.8472228000173345;001;JWYA97x;2019_Dec_13_1454;iat_vr;60.028189228686124;
2;SCHWACH;negativ;q;1;6;16;4;q;1;0.5988231000374071;001;JWYA97x;2019_Dec_13_1454;iat_vr;60.028189228686124;
2;POSITIV;positiv;p;1;7;17;8;p;1;0.6637701999861747;001;JWYA97x;2019_Dec_13_1454;iat_vr;60.028189228686124;
2;SCHÄDLICH;negativ;q;1;8;18;3;p;0;0.6107676000101492;001;JWYA97x;2019_Dec_13_1454;iat_vr;60.028189228686124;
2;GUT;positiv;p;1;9;19;9;p;1;0.7474755000439472;001;JWYA97x;2019_Dec_13_1454;iat_vr;60.028189228686124;
;;;;;;;;;;;001;JWYA97x;2019_Dec_13_1454;iat_vr;60.028189228686124;
3;SCHLECHT;negativ;q;0;0;0;1;q;1;2.4597299000015482;001;JWYA97x;2019_Dec_13_1454;iat_vr;60.028189228686124;
3;GUT;positiv;p;0;1;1;9;p;1;0.6493042999645695;001;JWYA97x;2019_Dec_13_1454;iat_vr;60.028189228686124;
3;SCHÄDLICH;negativ;q;0;2;2;3;q;1;0.7783784000203013;001;JWYA97x;2019_Dec_13_1454;iat_vr;60.028189228686124;
3;SCHWACH;negativ;q;0;3;3;4;q;1;0.8748745000339113;001;JWYA97x;2019_Dec_13_1454;iat_vr;60.028189228686124;
3;BLUME;Natur;q;0;4;4;12;p;0;0.8458733999868855;001;JWYA97x;2019_Dec_13_1454;iat_vr;60.028189228686124;
3;STEIN;Natur;q;0;5;5;14;q;1;1.101377799990587;001;JWYA97x;2019_Dec_13_1454;iat_vr;60.028189228686124;
3;HERVORRAGEND;positiv;p;0;6;6;7;p;1;1.7449349000235088;001;JWYA97x;2019_Dec_13_1454;iat_vr;60.028189228686124;
3;LAMPE;Gemacht;p;0;7;7;19;p;1;0.8317345000104979;001;JWYA97x;2019_Dec_13_1454;iat_vr;60.028189228686124;
3;NEGATIV;negativ;q;0;8;8;2;q;1;0.8151223000022583;001;JWYA97x;2019_Dec_13_1454;iat_vr;60.028189228686124;
3;STADT;Gemacht;p;0;9;9;16;p;1;0.7484127000207081;001;JWYA97x;2019_Dec_13_1454;iat_vr;60.028189228686124;
3;SCHLIMM;negativ;q;0;10;10;0;q;1;0.9800947000039741;001;JWYA97x;2019_Dec_13_1454;iat_vr;60.028189228686124;
3;POSITIV;positiv;p;0;11;11;8;p;1;0.7151752999634482;001;JWYA97x;2019_Dec_13_1454;iat_vr;60.028189228686124;
3;WASSER;Natur;q;0;12;12;11;q;1;0.9810126000083983;001;JWYA97x;2019_Dec_13_1454;iat_vr;60.028189228686124;
3;GEBÄUDE;Gemacht;p;0;13;13;15;p;1;0.6968687999760732;001;JWYA97x;2019_Dec_13_1454;iat_vr;60.028189228686124;
3;AUSGEZEICHNET;positiv;p;0;14;14;5;p;1;0.6947336999583058;001;JWYA97x;2019_Dec_13_1454;iat_vr;60.028189228686124;
3;BAUM;Natur;q;0;15;15;10;q;1;0.9992314000264741;001;JWYA97x;2019_Dec_13_1454;iat_vr;60.028189228686124;
3;KLEIDER;Gemacht;p;0;16;16;17;p;1;0.664256599964574;001;JWYA97x;2019_Dec_13_1454;iat_vr;60.028189228686124;
3;EINWANDFREI;positiv;p;0;17;17;6;p;1;0.9100069999694824;001;JWYA97x;2019_Dec_13_1454;iat_vr;60.028189228686124;
3;COMPUTER;Gemacht;p;0;18;18;18;p;1;1.2467330999788828;001;JWYA97x;2019_Dec_13_1454;iat_vr;60.028189228686124;
3;TIER;Natur;q;0;19;19;13;q;1;0.6994487000047229;001;JWYA97x;2019_Dec_13_1454;iat_vr;60.028189228686124;
;;;;;;;;;;;001;JWYA97x;2019_Dec_13_1454;iat_vr;60.028189228686124;
4;KLEIDER;Gemacht;p;0;0;0;17;p;1;1.1084636999876238;001;JWYA97x;2019_Dec_13_1454;iat_vr;60.028189228686124;
4;POSITIV;positiv;p;0;1;1;8;p;1;0.9494159999885596;001;JWYA97x;2019_Dec_13_1454;iat_vr;60.028189228686124;
4;STEIN;Natur;q;0;2;2;14;q;1;0.8484266999876127;001;JWYA97x;2019_Dec_13_1454;iat_vr;60.028189228686124;
4;COMPUTER;Gemacht;p;0;3;3;18;p;1;0.6690697000012733;001;JWYA97x;2019_Dec_13_1454;iat_vr;60.028189228686124;
4;STADT;Gemacht;p;0;4;4;16;p;1;0.614581499947235;001;JWYA97x;2019_Dec_13_1454;iat_vr;60.028189228686124;
4;TIER;Natur;q;0;5;5;13;q;1;0.5825562999816611;001;JWYA97x;2019_Dec_13_1454;iat_vr;60.028189228686124;
4;BLUME;Natur;q;0;6;6;12;q;1;0.9294468999723904;001;JWYA97x;2019_Dec_13_1454;iat_vr;60.028189228686124;
4;AUSGEZEICHNET;positiv;p;0;7;7;5;p;1;0.5838321999763139;001;JWYA97x;2019_Dec_13_1454;iat_vr;60.028189228686124;
4;GEBÄUDE;Gemacht;p;0;8;8;15;p;1;0.8796352999634109;001;JWYA97x;2019_Dec_13_1454;iat_vr;60.028189228686124;
4;WASSER;Natur;q;0;9;9;11;q;1;1.2359771000337787;001;JWYA97x;2019_Dec_13_1454;iat_vr;60.028189228686124;
4;SCHÄDLICH;negativ;q;0;10;10;3;p;0;0.8430495000211522;001;JWYA97x;2019_Dec_13_1454;iat_vr;60.028189228686124;
4;HERVORRAGEND;positiv;p;0;11;11;7;p;1;0.652354399964679;001;JWYA97x;2019_Dec_13_1454;iat_vr;60.028189228686124;
4;SCHLIMM;negativ;q;0;12;12;0;q;1;1.4830084000132047;001;JWYA97x;2019_Dec_13_1454;iat_vr;60.028189228686124;
4;NEGATIV;negativ;q;0;13;13;2;q;1;1.1446236000047065;001;JWYA97x;2019_Dec_13_1454;iat_vr;60.028189228686124;
4;SCHLECHT;negativ;q;0;14;14;1;q;1;0.6476588000077754;001;JWYA97x;2019_Dec_13_1454;iat_vr;60.028189228686124;
4;LAMPE;Gemacht;p;0;15;15;19;p;1;0.6450406000367366;001;JWYA97x;2019_Dec_13_1454;iat_vr;60.028189228686124;
4;EINWANDFREI;positiv;p;0;16;16;6;p;1;1.6289834000053816;001;JWYA97x;2019_Dec_13_1454;iat_vr;60.028189228686124;
4;GUT;positiv;p;0;17;17;9;p;1;0.8149744999827817;001;JWYA97x;2019_Dec_13_1454;iat_vr;60.028189228686124;
4;BAUM;Natur;q;0;18;18;10;p;0;0.9328013000194915;001;JWYA97x;2019_Dec_13_1454;iat_vr;60.028189228686124;
4;SCHWACH;negativ;q;0;19;19;4;q;1;1.2305590000469238;001;JWYA97x;2019_Dec_13_1454;iat_vr;60.028189228686124;
4;POSITIV;positiv;p;1;0;20;8;p;1;0.7817054000333883;001;JWYA97x;2019_Dec_13_1454;iat_vr;60.028189228686124;
4;LAMPE;Gemacht;p;1;1;21;19;p;1;1.6649764999747276;001;JWYA97x;2019_Dec_13_1454;iat_vr;60.028189228686124;
4;SCHLIMM;negativ;q;1;2;22;0;q;1;0.780868100002408;001;JWYA97x;2019_Dec_13_1454;iat_vr;60.028189228686124;
4;NEGATIV;negativ;q;1;3;23;2;q;1;0.8656470999703743;001;JWYA97x;2019_Dec_13_1454;iat_vr;60.028189228686124;
4;GUT;positiv;p;1;4;24;9;p;1;0.7825289000174962;001;JWYA97x;2019_Dec_13_1454;iat_vr;60.028189228686124;
4;STADT;Gemacht;p;1;5;25;16;p;1;1.1151978999841958;001;JWYA97x;2019_Dec_13_1454;iat_vr;60.028189228686124;
4;BAUM;Natur;q;1;6;26;10;q;1;0.7149044999969192;001;JWYA97x;2019_Dec_13_1454;iat_vr;60.028189228686124;
4;BLUME;Natur;q;1;7;27;12;q;1;0.6800322000053711;001;JWYA97x;2019_Dec_13_1454;iat_vr;60.028189228686124;
4;SCHLECHT;negativ;q;1;8;28;1;q;1;1.4355103999841958;001;JWYA97x;2019_Dec_13_1454;iat_vr;60.028189228686124;
4;AUSGEZEICHNET;positiv;p;1;9;29;5;p;1;0.6607006999547593;001;JWYA97x;2019_Dec_13_1454;iat_vr;60.028189228686124;
4;HERVORRAGEND;positiv;p;1;10;30;7;p;1;0.7468643999891356;001;JWYA97x;2019_Dec_13_1454;iat_vr;60.028189228686124;
4;STEIN;Natur;q;1;11;31;14;q;1;0.9482916999841109;001;JWYA97x;2019_Dec_13_1454;iat_vr;60.028189228686124;
4;WASSER;Natur;q;1;12;32;11;q;1;0.6616655999678187;001;JWYA97x;2019_Dec_13_1454;iat_vr;60.028189228686124;
4;SCHWACH;negativ;q;1;13;33;4;q;1;0.7124118999927305;001;JWYA97x;2019_Dec_13_1454;iat_vr;60.028189228686124;
4;SCHÄDLICH;negativ;q;1;14;34;3;q;1;0.747882199997548;001;JWYA97x;2019_Dec_13_1454;iat_vr;60.028189228686124;
4;GEBÄUDE;Gemacht;p;1;15;35;15;p;1;1.0816667000181042;001;JWYA97x;2019_Dec_13_1454;iat_vr;60.028189228686124;
4;COMPUTER;Gemacht;p;1;16;36;18;p;1;0.5791704999865033;001;JWYA97x;2019_Dec_13_1454;iat_vr;60.028189228686124;
4;TIER;Natur;q;1;17;37;13;p;0;0.6660784999839962;001;JWYA97x;2019_Dec_13_1454;iat_vr;60.028189228686124;
4;KLEIDER;Gemacht;p;1;18;38;17;p;1;2.1144519000081345;001;JWYA97x;2019_Dec_13_1454;iat_vr;60.028189228686124;
4;EINWANDFREI;positiv;p;1;19;39;6;p;1;1.5121590999769978;001;JWYA97x;2019_Dec_13_1454;iat_vr;60.028189228686124;
;;;;;;;;;;;001;JWYA97x;2019_Dec_13_1454;iat_vr;60.028189228686124;
5;KLEIDER;Gemacht;q;0;0;0;7;q;1;2.4776203999645077;001;JWYA97x;2019_Dec_13_1454;iat_vr;60.028189228686124;
5;LAMPE;Gemacht;q;0;1;1;9;q;1;0.7169647999689914;001;JWYA97x;2019_Dec_13_1454;iat_vr;60.028189228686124;
5;BAUM;Natur;p;0;2;2;0;p;1;0.8002478000125848;001;JWYA97x;2019_Dec_13_1454;iat_vr;60.028189228686124;
5;BLUME;Natur;p;0;3;3;2;p;1;0.6841721999808215;001;JWYA97x;2019_Dec_13_1454;iat_vr;60.028189228686124;
5;GEBÄUDE;Gemacht;q;0;4;4;5;q;1;0.7526354999863543;001;JWYA97x;2019_Dec_13_1454;iat_vr;60.028189228686124;
5;WASSER;Natur;p;0;5;5;1;p;1;0.9806854000198655;001;JWYA97x;2019_Dec_13_1454;iat_vr;60.028189228686124;
5;TIER;Natur;p;0;6;6;3;p;1;0.7151002999744378;001;JWYA97x;2019_Dec_13_1454;iat_vr;60.028189228686124;
5;STEIN;Natur;p;0;7;7;4;p;1;0.6980290000210516;001;JWYA97x;2019_Dec_13_1454;iat_vr;60.028189228686124;
5;COMPUTER;Gemacht;q;0;8;8;8;q;1;0.5738512999960221;001;JWYA97x;2019_Dec_13_1454;iat_vr;60.028189228686124;
5;STADT;Gemacht;q;0;9;9;6;q;1;0.7981530000106432;001;JWYA97x;2019_Dec_13_1454;iat_vr;60.028189228686124;
5;BLUME;Natur;p;1;0;10;2;p;1;0.5789445000118576;001;JWYA97x;2019_Dec_13_1454;iat_vr;60.028189228686124;
5;STEIN;Natur;p;1;1;11;4;q;0;0.5155383999808691;001;JWYA97x;2019_Dec_13_1454;iat_vr;60.028189228686124;
5;TIER;Natur;p;1;2;12;3;p;1;2.550218800024595;001;JWYA97x;2019_Dec_13_1454;iat_vr;60.028189228686124;
5;KLEIDER;Gemacht;q;1;3;13;7;q;1;0.8119295000215061;001;JWYA97x;2019_Dec_13_1454;iat_vr;60.028189228686124;
5;WASSER;Natur;p;1;4;14;1;p;1;1.2851264999480918;001;JWYA97x;2019_Dec_13_1454;iat_vr;60.028189228686124;
5;BAUM;Natur;p;1;5;15;0;p;1;0.5987484999932349;001;JWYA97x;2019_Dec_13_1454;iat_vr;60.028189228686124;
5;GEBÄUDE;Gemacht;q;1;6;16;5;q;1;0.6506417000200599;001;JWYA97x;2019_Dec_13_1454;iat_vr;60.028189228686124;
5;COMPUTER;Gemacht;q;1;7;17;8;q;1;0.5474652000120841;001;JWYA97x;2019_Dec_13_1454;iat_vr;60.028189228686124;
5;LAMPE;Gemacht;q;1;8;18;9;q;1;0.8328769000363536;001;JWYA97x;2019_Dec_13_1454;iat_vr;60.028189228686124;
5;STADT;Gemacht;q;1;9;19;6;q;1;0.6987406999687664;001;JWYA97x;2019_Dec_13_1454;iat_vr;60.028189228686124;
;;;;;;;;;;;001;JWYA97x;2019_Dec_13_1454;iat_vr;60.028189228686124;
6;BAUM;Natur;p;0;0;0;0;p;1;0.8966317999875173;001;JWYA97x;2019_Dec_13_1454;iat_vr;60.028189228686124;
6;WASSER;Natur;p;0;1;1;1;p;1;0.6976288000005297;001;JWYA97x;2019_Dec_13_1454;iat_vr;60.028189228686124;
6;LAMPE;Gemacht;q;0;2;2;9;p;0;0.532960299984552;001;JWYA97x;2019_Dec_13_1454;iat_vr;60.028189228686124;
6;EINWANDFREI;positiv;p;0;3;3;16;p;1;1.0608550000470132;001;JWYA97x;2019_Dec_13_1454;iat_vr;60.028189228686124;
6;SCHLIMM;negativ;q;0;4;4;10;q;1;1.9460561000159942;001;JWYA97x;2019_Dec_13_1454;iat_vr;60.028189228686124;
6;AUSGEZEICHNET;positiv;p;0;5;5;15;p;1;0.9909341000020504;001;JWYA97x;2019_Dec_13_1454;iat_vr;60.028189228686124;
6;SCHLECHT;negativ;q;0;6;6;11;q;1;0.9112125000101514;001;JWYA97x;2019_Dec_13_1454;iat_vr;60.028189228686124;
6;STADT;Gemacht;q;0;7;7;6;q;1;0.6292892000055872;001;JWYA97x;2019_Dec_13_1454;iat_vr;60.028189228686124;
6;GEBÄUDE;Gemacht;q;0;8;8;5;q;1;0.6149256000062451;001;JWYA97x;2019_Dec_13_1454;iat_vr;60.028189228686124;
6;STEIN;Natur;p;0;9;9;4;p;1;0.6641059999819845;001;JWYA97x;2019_Dec_13_1454;iat_vr;60.028189228686124;
6;BLUME;Natur;p;0;10;10;2;p;1;0.6973489000229165;001;JWYA97x;2019_Dec_13_1454;iat_vr;60.028189228686124;
6;NEGATIV;negativ;q;0;11;11;12;p;0;1.0475017999997362;001;JWYA97x;2019_Dec_13_1454;iat_vr;60.028189228686124;
6;GUT;positiv;p;0;12;12;19;p;1;1.4654806000180542;001;JWYA97x;2019_Dec_13_1454;iat_vr;60.028189228686124;
6;KLEIDER;Gemacht;q;0;13;13;7;q;1;1.297094300040044;001;JWYA97x;2019_Dec_13_1454;iat_vr;60.028189228686124;
6;TIER;Natur;p;0;14;14;3;p;1;0.7481572999968193;001;JWYA97x;2019_Dec_13_1454;iat_vr;60.028189228686124;
6;COMPUTER;Gemacht;q;0;15;15;8;q;1;0.7292916000005789;001;JWYA97x;2019_Dec_13_1454;iat_vr;60.028189228686124;
6;SCHÄDLICH;negativ;q;0;16;16;13;q;1;2.2113433000049554;001;JWYA97x;2019_Dec_13_1454;iat_vr;60.028189228686124;
6;SCHWACH;negativ;q;0;17;17;14;q;1;0.7339284000336193;001;JWYA97x;2019_Dec_13_1454;iat_vr;60.028189228686124;
6;POSITIV;positiv;p;0;18;18;18;p;1;0.7129757999791764;001;JWYA97x;2019_Dec_13_1454;iat_vr;60.028189228686124;
6;HERVORRAGEND;positiv;p;0;19;19;17;p;1;0.8280572000076063;001;JWYA97x;2019_Dec_13_1454;iat_vr;60.028189228686124;
;;;;;;;;;;;001;JWYA97x;2019_Dec_13_1454;iat_vr;60.028189228686124;
7;POSITIV;positiv;p;0;0;0;18;p;1;0.8385251000290737;001;JWYA97x;2019_Dec_13_1454;iat_vr;60.028189228686124;
7;SCHLECHT;negativ;q;0;1;1;11;q;1;0.8538238999899477;001;JWYA97x;2019_Dec_13_1454;iat_vr;60.028189228686124;
7;AUSGEZEICHNET;positiv;p;0;2;2;15;p;1;0.758494499954395;001;JWYA97x;2019_Dec_13_1454;iat_vr;60.028189228686124;
7;EINWANDFREI;positiv;p;0;3;3;16;p;1;0.7946849000290968;001;JWYA97x;2019_Dec_13_1454;iat_vr;60.028189228686124;
7;HERVORRAGEND;positiv;p;0;4;4;17;p;1;0.5621224999777041;001;JWYA97x;2019_Dec_13_1454;iat_vr;60.028189228686124;
7;BLUME;Natur;p;0;5;5;2;p;1;0.564162699971348;001;JWYA97x;2019_Dec_13_1454;iat_vr;60.028189228686124;
7;GEBÄUDE;Gemacht;q;0;6;6;5;q;1;0.7317828999948688;001;JWYA97x;2019_Dec_13_1454;iat_vr;60.028189228686124;
7;STADT;Gemacht;q;0;7;7;6;q;1;0.646736399969086;001;JWYA97x;2019_Dec_13_1454;iat_vr;60.028189228686124;
7;WASSER;Natur;p;0;8;8;1;p;1;0.6548756000120193;001;JWYA97x;2019_Dec_13_1454;iat_vr;60.028189228686124;
7;STEIN;Natur;p;0;9;9;4;p;1;0.5987338999984786;001;JWYA97x;2019_Dec_13_1454;iat_vr;60.028189228686124;
7;NEGATIV;negativ;q;0;10;10;12;p;0;0.7107957999687642;001;JWYA97x;2019_Dec_13_1454;iat_vr;60.028189228686124;
7;BAUM;Natur;p;0;11;11;0;p;1;0.7164073000312783;001;JWYA97x;2019_Dec_13_1454;iat_vr;60.028189228686124;
7;SCHWACH;negativ;q;0;12;12;14;q;1;0.6508749999920838;001;JWYA97x;2019_Dec_13_1454;iat_vr;60.028189228686124;
7;COMPUTER;Gemacht;q;0;13;13;8;q;1;0.5968351000337861;001;JWYA97x;2019_Dec_13_1454;iat_vr;60.028189228686124;
7;TIER;Natur;p;0;14;14;3;p;1;1.0126212000031956;001;JWYA97x;2019_Dec_13_1454;iat_vr;60.028189228686124;
7;GUT;positiv;p;0;15;15;19;p;1;0.5825571999885142;001;JWYA97x;2019_Dec_13_1454;iat_vr;60.028189228686124;
7;LAMPE;Gemacht;q;0;16;16;9;q;1;0.6900972999865189;001;JWYA97x;2019_Dec_13_1454;iat_vr;60.028189228686124;
7;SCHÄDLICH;negativ;q;0;17;17;13;q;1;0.7293425999814644;001;JWYA97x;2019_Dec_13_1454;iat_vr;60.028189228686124;
7;KLEIDER;Gemacht;q;0;18;18;7;q;1;0.8303862999891862;001;JWYA97x;2019_Dec_13_1454;iat_vr;60.028189228686124;
7;SCHLIMM;negativ;q;0;19;19;10;q;1;0.9646996000083163;001;JWYA97x;2019_Dec_13_1454;iat_vr;60.028189228686124;
7;SCHLIMM;negativ;q;1;0;20;10;q;1;0.7667318000458181;001;JWYA97x;2019_Dec_13_1454;iat_vr;60.028189228686124;
7;SCHLECHT;negativ;q;1;1;21;11;q;1;0.6457579999696463;001;JWYA97x;2019_Dec_13_1454;iat_vr;60.028189228686124;
7;WASSER;Natur;p;1;2;22;1;p;1;1.1593597999890335;001;JWYA97x;2019_Dec_13_1454;iat_vr;60.028189228686124;
7;GEBÄUDE;Gemacht;q;1;3;23;5;q;1;0.6303527999552898;001;JWYA97x;2019_Dec_13_1454;iat_vr;60.028189228686124;
7;COMPUTER;Gemacht;q;1;4;24;8;q;1;1.5804873000015505;001;JWYA97x;2019_Dec_13_1454;iat_vr;60.028189228686124;
7;BLUME;Natur;p;1;5;25;2;p;1;0.631635700003244;001;JWYA97x;2019_Dec_13_1454;iat_vr;60.028189228686124;
7;BAUM;Natur;p;1;6;26;0;p;1;0.6165631000185385;001;JWYA97x;2019_Dec_13_1454;iat_vr;60.028189228686124;
7;KLEIDER;Gemacht;q;1;7;27;7;q;1;1.000391400011722;001;JWYA97x;2019_Dec_13_1454;iat_vr;60.028189228686124;
7;STEIN;Natur;p;1;8;28;4;p;1;0.6670404999749735;001;JWYA97x;2019_Dec_13_1454;iat_vr;60.028189228686124;
7;GUT;positiv;p;1;9;29;19;p;1;1.4994149000267498;001;JWYA97x;2019_Dec_13_1454;iat_vr;60.028189228686124;
7;TIER;Natur;p;1;10;30;3;p;1;0.7503837000112981;001;JWYA97x;2019_Dec_13_1454;iat_vr;60.028189228686124;
7;STADT;Gemacht;q;1;11;31;6;q;1;0.6668722999747843;001;JWYA97x;2019_Dec_13_1454;iat_vr;60.028189228686124;
7;EINWANDFREI;positiv;p;1;12;32;16;p;1;0.6170934000401758;001;JWYA97x;2019_Dec_13_1454;iat_vr;60.028189228686124;
7;HERVORRAGEND;positiv;p;1;13;33;17;p;1;0.5839105999912135;001;JWYA97x;2019_Dec_13_1454;iat_vr;60.028189228686124;
7;NEGATIV;negativ;q;1;14;34;12;q;1;0.8006386000197381;001;JWYA97x;2019_Dec_13_1454;iat_vr;60.028189228686124;
7;SCHÄDLICH;negativ;q;1;15;35;13;q;1;0.667117600038182;001;JWYA97x;2019_Dec_13_1454;iat_vr;60.028189228686124;
7;SCHWACH;negativ;q;1;16;36;14;q;1;0.5505431999918073;001;JWYA97x;2019_Dec_13_1454;iat_vr;60.028189228686124;
7;AUSGEZEICHNET;positiv;p;1;17;37;15;q;0;0.5836320000234991;001;JWYA97x;2019_Dec_13_1454;iat_vr;60.028189228686124;
7;LAMPE;Gemacht;q;1;18;38;9;q;1;1.200343900010921;001;JWYA97x;2019_Dec_13_1454;iat_vr;60.028189228686124;
7;POSITIV;positiv;p;1;19;39;18;p;1;0.5834233000059612;001;JWYA97x;2019_Dec_13_1454;iat_vr;60.028189228686124;
;;;;;;;;;;;001;JWYA97x;2019_Dec_13_1454;iat_vr;60.028189228686124;
