Block;Word;Category;CorrResp;trials.thisRepN;trials.thisTrialN;trials.thisN;trials.thisIndex;key_resp_2.keys;key_resp_2.corr;key_resp_2.rt;session;participant;date;expName;frameRate;
1;WASSER;Natur;q;0;0;0;1;q;1;3.6759678999987955;001;NSGC98;2019_Dec_05_1607;iat_vr;59.97699282622907;
1;BAUM;Natur;q;0;1;1;0;q;1;0.7102730000005977;001;NSGC98;2019_Dec_05_1607;iat_vr;59.97699282622907;
1;COMPUTER;Gemacht;p;0;2;2;8;p;1;2.8050925999996252;001;NSGC98;2019_Dec_05_1607;iat_vr;59.97699282622907;
1;LAMPE;Gemacht;p;0;3;3;9;p;1;0.915103999999701;001;NSGC98;2019_Dec_05_1607;iat_vr;59.97699282622907;
1;GEBÄUDE;Gemacht;p;0;4;4;5;p;1;1.0627850000018952;001;NSGC98;2019_Dec_05_1607;iat_vr;59.97699282622907;
1;STADT;Gemacht;p;0;5;5;6;p;1;1.3148586999996041;001;NSGC98;2019_Dec_05_1607;iat_vr;59.97699282622907;
1;STEIN;Natur;q;0;6;6;4;q;1;2.2021095999989484;001;NSGC98;2019_Dec_05_1607;iat_vr;59.97699282622907;
1;TIER;Natur;q;0;7;7;3;q;1;0.8829225000008591;001;NSGC98;2019_Dec_05_1607;iat_vr;59.97699282622907;
1;KLEIDER;Gemacht;p;0;8;8;7;p;1;0.8271009000018239;001;NSGC98;2019_Dec_05_1607;iat_vr;59.97699282622907;
1;BLUME;Natur;q;0;9;9;2;q;1;0.6336174999996729;001;NSGC98;2019_Dec_05_1607;iat_vr;59.97699282622907;
1;STEIN;Natur;q;1;0;10;4;q;1;3.59763810000004;001;NSGC98;2019_Dec_05_1607;iat_vr;59.97699282622907;
1;GEBÄUDE;Gemacht;p;1;1;11;5;p;1;1.4810010000001057;001;NSGC98;2019_Dec_05_1607;iat_vr;59.97699282622907;
1;WASSER;Natur;q;1;2;12;1;q;1;0.7355041000009805;001;NSGC98;2019_Dec_05_1607;iat_vr;59.97699282622907;
1;BAUM;Natur;q;1;3;13;0;q;1;0.731995399997686;001;NSGC98;2019_Dec_05_1607;iat_vr;59.97699282622907;
1;LAMPE;Gemacht;p;1;4;14;9;p;1;0.7982508999994025;001;NSGC98;2019_Dec_05_1607;iat_vr;59.97699282622907;
1;BLUME;Natur;q;1;5;15;2;q;1;1.164521299997432;001;NSGC98;2019_Dec_05_1607;iat_vr;59.97699282622907;
1;COMPUTER;Gemacht;p;1;6;16;8;p;1;1.056439500000124;001;NSGC98;2019_Dec_05_1607;iat_vr;59.97699282622907;
1;KLEIDER;Gemacht;p;1;7;17;7;p;1;0.7632243000007293;001;NSGC98;2019_Dec_05_1607;iat_vr;59.97699282622907;
1;STADT;Gemacht;p;1;8;18;6;p;1;0.7313300999994681;001;NSGC98;2019_Dec_05_1607;iat_vr;59.97699282622907;
1;TIER;Natur;q;1;9;19;3;q;1;0.6815425999993749;001;NSGC98;2019_Dec_05_1607;iat_vr;59.97699282622907;
;;;;;;;;;;;001;NSGC98;2019_Dec_05_1607;iat_vr;59.97699282622907;
2;EINWANDFREI;positiv;p;0;0;0;6;p;1;3.971433299997443;001;NSGC98;2019_Dec_05_1607;iat_vr;59.97699282622907;
2;HERVORRAGEND;positiv;p;0;1;1;7;p;1;0.7024693000021216;001;NSGC98;2019_Dec_05_1607;iat_vr;59.97699282622907;
2;POSITIV;positiv;p;0;2;2;8;p;1;0.6981624999971245;001;NSGC98;2019_Dec_05_1607;iat_vr;59.97699282622907;
2;NEGATIV;negativ;q;0;3;3;2;q;1;0.6623538000021654;001;NSGC98;2019_Dec_05_1607;iat_vr;59.97699282622907;
2;SCHWACH;negativ;q;0;4;4;4;q;1;1.080609699998604;001;NSGC98;2019_Dec_05_1607;iat_vr;59.97699282622907;
2;SCHLIMM;negativ;q;0;5;5;0;q;1;0.6659394999987853;001;NSGC98;2019_Dec_05_1607;iat_vr;59.97699282622907;
2;GUT;positiv;p;0;6;6;9;p;1;0.6309758000024885;001;NSGC98;2019_Dec_05_1607;iat_vr;59.97699282622907;
2;SCHLECHT;negativ;q;0;7;7;1;q;1;1.5975711999999476;001;NSGC98;2019_Dec_05_1607;iat_vr;59.97699282622907;
2;AUSGEZEICHNET;positiv;p;0;8;8;5;p;1;0.7330980000006093;001;NSGC98;2019_Dec_05_1607;iat_vr;59.97699282622907;
2;SCHÄDLICH;negativ;q;0;9;9;3;q;1;2.1635292999999365;001;NSGC98;2019_Dec_05_1607;iat_vr;59.97699282622907;
2;EINWANDFREI;positiv;p;1;0;10;6;p;1;1.6256431000001612;001;NSGC98;2019_Dec_05_1607;iat_vr;59.97699282622907;
2;SCHÄDLICH;negativ;q;1;1;11;3;q;1;0.8128034999972442;001;NSGC98;2019_Dec_05_1607;iat_vr;59.97699282622907;
2;HERVORRAGEND;positiv;p;1;2;12;7;p;1;0.7988318999996409;001;NSGC98;2019_Dec_05_1607;iat_vr;59.97699282622907;
2;NEGATIV;negativ;q;1;3;13;2;q;1;0.8766003999990062;001;NSGC98;2019_Dec_05_1607;iat_vr;59.97699282622907;
2;SCHLIMM;negativ;q;1;4;14;0;q;1;1.4845432000001892;001;NSGC98;2019_Dec_05_1607;iat_vr;59.97699282622907;
2;POSITIV;positiv;p;1;5;15;8;p;1;0.6809356000012485;001;NSGC98;2019_Dec_05_1607;iat_vr;59.97699282622907;
2;SCHWACH;negativ;q;1;6;16;4;q;1;0.779018699999142;001;NSGC98;2019_Dec_05_1607;iat_vr;59.97699282622907;
2;AUSGEZEICHNET;positiv;p;1;7;17;5;p;1;1.3941665999991528;001;NSGC98;2019_Dec_05_1607;iat_vr;59.97699282622907;
2;GUT;positiv;p;1;8;18;9;p;1;0.5814183000002231;001;NSGC98;2019_Dec_05_1607;iat_vr;59.97699282622907;
2;SCHLECHT;negativ;q;1;9;19;1;q;1;2.583213000001706;001;NSGC98;2019_Dec_05_1607;iat_vr;59.97699282622907;
;;;;;;;;;;;001;NSGC98;2019_Dec_05_1607;iat_vr;59.97699282622907;
3;BLUME;Natur;q;0;0;0;12;q;1;2.145275099999708;001;NSGC98;2019_Dec_05_1607;iat_vr;59.97699282622907;
3;SCHLIMM;negativ;q;0;1;1;0;q;1;0.9311495999972976;001;NSGC98;2019_Dec_05_1607;iat_vr;59.97699282622907;
3;EINWANDFREI;positiv;p;0;2;2;6;p;1;0.9959320000016305;001;NSGC98;2019_Dec_05_1607;iat_vr;59.97699282622907;
3;LAMPE;Gemacht;p;0;3;3;19;p;1;2.5494548000024224;001;NSGC98;2019_Dec_05_1607;iat_vr;59.97699282622907;
3;TIER;Natur;q;0;4;4;13;q;1;1.7294619999993301;001;NSGC98;2019_Dec_05_1607;iat_vr;59.97699282622907;
3;NEGATIV;negativ;q;0;5;5;2;q;1;0.7968504999989818;001;NSGC98;2019_Dec_05_1607;iat_vr;59.97699282622907;
3;GUT;positiv;p;0;6;6;9;p;1;0.7489399000005506;001;NSGC98;2019_Dec_05_1607;iat_vr;59.97699282622907;
3;SCHÄDLICH;negativ;q;0;7;7;3;q;1;1.0109293999994406;001;NSGC98;2019_Dec_05_1607;iat_vr;59.97699282622907;
3;GEBÄUDE;Gemacht;p;0;8;8;15;p;1;1.6012640000008105;001;NSGC98;2019_Dec_05_1607;iat_vr;59.97699282622907;
3;HERVORRAGEND;positiv;p;0;9;9;7;p;1;2.0193594000011217;001;NSGC98;2019_Dec_05_1607;iat_vr;59.97699282622907;
3;STEIN;Natur;q;0;10;10;14;q;1;0.7189733999985037;001;NSGC98;2019_Dec_05_1607;iat_vr;59.97699282622907;
3;STADT;Gemacht;p;0;11;11;16;p;1;1.430575599999429;001;NSGC98;2019_Dec_05_1607;iat_vr;59.97699282622907;
3;SCHWACH;negativ;q;0;12;12;4;q;1;1.1149408999990555;001;NSGC98;2019_Dec_05_1607;iat_vr;59.97699282622907;
3;SCHLECHT;negativ;q;0;13;13;1;q;1;0.5797137000008661;001;NSGC98;2019_Dec_05_1607;iat_vr;59.97699282622907;
3;KLEIDER;Gemacht;p;0;14;14;17;p;1;0.6851889999998093;001;NSGC98;2019_Dec_05_1607;iat_vr;59.97699282622907;
3;AUSGEZEICHNET;positiv;p;0;15;15;5;p;1;0.9097130000009201;001;NSGC98;2019_Dec_05_1607;iat_vr;59.97699282622907;
3;COMPUTER;Gemacht;p;0;16;16;18;p;1;1.8302684000009322;001;NSGC98;2019_Dec_05_1607;iat_vr;59.97699282622907;
3;POSITIV;positiv;p;0;17;17;8;p;1;1.080149800000072;001;NSGC98;2019_Dec_05_1607;iat_vr;59.97699282622907;
3;BAUM;Natur;q;0;18;18;10;q;1;1.4800828000006732;001;NSGC98;2019_Dec_05_1607;iat_vr;59.97699282622907;
3;WASSER;Natur;q;0;19;19;11;q;1;1.0137761000005412;001;NSGC98;2019_Dec_05_1607;iat_vr;59.97699282622907;
;;;;;;;;;;;001;NSGC98;2019_Dec_05_1607;iat_vr;59.97699282622907;
4;HERVORRAGEND;positiv;p;0;0;0;7;p;1;2.8653653000001214;001;NSGC98;2019_Dec_05_1607;iat_vr;59.97699282622907;
4;SCHWACH;negativ;q;0;1;1;4;q;1;1.0983446999998705;001;NSGC98;2019_Dec_05_1607;iat_vr;59.97699282622907;
4;WASSER;Natur;q;0;2;2;11;q;1;1.0468285999995715;001;NSGC98;2019_Dec_05_1607;iat_vr;59.97699282622907;
4;SCHLECHT;negativ;q;0;3;3;1;q;1;0.8287185000008321;001;NSGC98;2019_Dec_05_1607;iat_vr;59.97699282622907;
4;EINWANDFREI;positiv;p;0;4;4;6;p;1;0.8777924999994866;001;NSGC98;2019_Dec_05_1607;iat_vr;59.97699282622907;
4;BLUME;Natur;q;0;5;5;12;q;1;0.664657299999817;001;NSGC98;2019_Dec_05_1607;iat_vr;59.97699282622907;
4;TIER;Natur;q;0;6;6;13;q;1;0.6635356000006141;001;NSGC98;2019_Dec_05_1607;iat_vr;59.97699282622907;
4;COMPUTER;Gemacht;p;0;7;7;18;p;1;0.9335648999986006;001;NSGC98;2019_Dec_05_1607;iat_vr;59.97699282622907;
4;KLEIDER;Gemacht;p;0;8;8;17;p;1;0.8629359999977169;001;NSGC98;2019_Dec_05_1607;iat_vr;59.97699282622907;
4;SCHLIMM;negativ;q;0;9;9;0;q;1;0.7835382999983267;001;NSGC98;2019_Dec_05_1607;iat_vr;59.97699282622907;
4;NEGATIV;negativ;q;0;10;10;2;q;1;0.614252999999735;001;NSGC98;2019_Dec_05_1607;iat_vr;59.97699282622907;
4;STEIN;Natur;q;0;11;11;14;q;1;1.031182999999146;001;NSGC98;2019_Dec_05_1607;iat_vr;59.97699282622907;
4;BAUM;Natur;q;0;12;12;10;q;1;2.2961334999999963;001;NSGC98;2019_Dec_05_1607;iat_vr;59.97699282622907;
4;LAMPE;Gemacht;p;0;13;13;19;p;1;0.652239399998507;001;NSGC98;2019_Dec_05_1607;iat_vr;59.97699282622907;
4;GEBÄUDE;Gemacht;p;0;14;14;15;p;1;2.1797297000011895;001;NSGC98;2019_Dec_05_1607;iat_vr;59.97699282622907;
4;SCHÄDLICH;negativ;q;0;15;15;3;q;1;0.6523772000000463;001;NSGC98;2019_Dec_05_1607;iat_vr;59.97699282622907;
4;AUSGEZEICHNET;positiv;p;0;16;16;5;p;1;0.7946106999988842;001;NSGC98;2019_Dec_05_1607;iat_vr;59.97699282622907;
4;GUT;positiv;p;0;17;17;9;p;1;0.5969650000006368;001;NSGC98;2019_Dec_05_1607;iat_vr;59.97699282622907;
4;STADT;Gemacht;p;0;18;18;16;p;1;1.5517341000013403;001;NSGC98;2019_Dec_05_1607;iat_vr;59.97699282622907;
4;POSITIV;positiv;p;0;19;19;8;p;1;2.1128442000008363;001;NSGC98;2019_Dec_05_1607;iat_vr;59.97699282622907;
4;POSITIV;positiv;p;1;0;20;8;p;1;0.8186322000001383;001;NSGC98;2019_Dec_05_1607;iat_vr;59.97699282622907;
4;SCHÄDLICH;negativ;q;1;1;21;3;q;1;0.6975171999984013;001;NSGC98;2019_Dec_05_1607;iat_vr;59.97699282622907;
4;SCHLIMM;negativ;q;1;2;22;0;q;1;0.6813098000020545;001;NSGC98;2019_Dec_05_1607;iat_vr;59.97699282622907;
4;EINWANDFREI;positiv;p;1;3;23;6;p;1;1.4622129000017594;001;NSGC98;2019_Dec_05_1607;iat_vr;59.97699282622907;
4;HERVORRAGEND;positiv;p;1;4;24;7;p;1;2.9619846000023244;001;NSGC98;2019_Dec_05_1607;iat_vr;59.97699282622907;
4;STEIN;Natur;q;1;5;25;14;q;1;1.4454387999976461;001;NSGC98;2019_Dec_05_1607;iat_vr;59.97699282622907;
4;NEGATIV;negativ;q;1;6;26;2;q;1;1.413790100003098;001;NSGC98;2019_Dec_05_1607;iat_vr;59.97699282622907;
4;WASSER;Natur;q;1;7;27;11;q;1;0.9479090999993787;001;NSGC98;2019_Dec_05_1607;iat_vr;59.97699282622907;
4;BAUM;Natur;q;1;8;28;10;q;1;1.1323301999982505;001;NSGC98;2019_Dec_05_1607;iat_vr;59.97699282622907;
4;SCHWACH;negativ;q;1;9;29;4;q;1;1.5981546000002709;001;NSGC98;2019_Dec_05_1607;iat_vr;59.97699282622907;
4;BLUME;Natur;q;1;10;30;12;q;1;0.8446076000000176;001;NSGC98;2019_Dec_05_1607;iat_vr;59.97699282622907;
4;GUT;positiv;p;1;11;31;9;p;1;0.6521145000006072;001;NSGC98;2019_Dec_05_1607;iat_vr;59.97699282622907;
4;AUSGEZEICHNET;positiv;p;1;12;32;5;p;1;0.7189734999992652;001;NSGC98;2019_Dec_05_1607;iat_vr;59.97699282622907;
4;GEBÄUDE;Gemacht;p;1;13;33;15;p;1;1.097508499999094;001;NSGC98;2019_Dec_05_1607;iat_vr;59.97699282622907;
4;LAMPE;Gemacht;p;1;14;34;19;p;1;0.7027271000006294;001;NSGC98;2019_Dec_05_1607;iat_vr;59.97699282622907;
4;STADT;Gemacht;p;1;15;35;16;p;1;0.6469364999975369;001;NSGC98;2019_Dec_05_1607;iat_vr;59.97699282622907;
4;SCHLECHT;negativ;q;1;16;36;1;q;1;0.6135247999991407;001;NSGC98;2019_Dec_05_1607;iat_vr;59.97699282622907;
4;KLEIDER;Gemacht;p;1;17;37;17;p;1;0.701094700001704;001;NSGC98;2019_Dec_05_1607;iat_vr;59.97699282622907;
4;COMPUTER;Gemacht;p;1;18;38;18;p;1;3.2169861999973364;001;NSGC98;2019_Dec_05_1607;iat_vr;59.97699282622907;
4;TIER;Natur;q;1;19;39;13;q;1;1.6156292000014219;001;NSGC98;2019_Dec_05_1607;iat_vr;59.97699282622907;
;;;;;;;;;;;001;NSGC98;2019_Dec_05_1607;iat_vr;59.97699282622907;
5;KLEIDER;Gemacht;q;0;0;0;7;q;1;2.5838253000001714;001;NSGC98;2019_Dec_05_1607;iat_vr;59.97699282622907;
5;STEIN;Natur;p;0;1;1;4;p;1;1.5315000000009604;001;NSGC98;2019_Dec_05_1607;iat_vr;59.97699282622907;
5;WASSER;Natur;p;0;2;2;1;p;1;0.7854821000000811;001;NSGC98;2019_Dec_05_1607;iat_vr;59.97699282622907;
5;STADT;Gemacht;q;0;3;3;6;q;1;1.8795933000001241;001;NSGC98;2019_Dec_05_1607;iat_vr;59.97699282622907;
5;TIER;Natur;p;0;4;4;3;p;1;1.1318527000003087;001;NSGC98;2019_Dec_05_1607;iat_vr;59.97699282622907;
5;BAUM;Natur;p;0;5;5;0;p;1;9.082324699997116;001;NSGC98;2019_Dec_05_1607;iat_vr;59.97699282622907;
5;COMPUTER;Gemacht;q;0;6;6;8;p;0;19.327085299999453;001;NSGC98;2019_Dec_05_1607;iat_vr;59.97699282622907;
5;BLUME;Natur;p;0;7;7;2;q;0;1.5948432000004686;001;NSGC98;2019_Dec_05_1607;iat_vr;59.97699282622907;
5;LAMPE;Gemacht;q;0;8;8;9;q;1;0.8657830000011018;001;NSGC98;2019_Dec_05_1607;iat_vr;59.97699282622907;
5;GEBÄUDE;Gemacht;q;0;9;9;5;q;1;1.1817291000006662;001;NSGC98;2019_Dec_05_1607;iat_vr;59.97699282622907;
5;TIER;Natur;p;1;0;10;3;q;0;2.000177199999598;001;NSGC98;2019_Dec_05_1607;iat_vr;59.97699282622907;
5;COMPUTER;Gemacht;q;1;1;11;8;p;0;0.9638897000004363;001;NSGC98;2019_Dec_05_1607;iat_vr;59.97699282622907;
5;BAUM;Natur;p;1;2;12;0;q;0;0.7319574000030116;001;NSGC98;2019_Dec_05_1607;iat_vr;59.97699282622907;
5;GEBÄUDE;Gemacht;q;1;3;13;5;p;0;0.9647519999998622;001;NSGC98;2019_Dec_05_1607;iat_vr;59.97699282622907;
5;BLUME;Natur;p;1;4;14;2;q;0;1.049749800000427;001;NSGC98;2019_Dec_05_1607;iat_vr;59.97699282622907;
5;WASSER;Natur;p;1;5;15;1;p;1;1.15137070000128;001;NSGC98;2019_Dec_05_1607;iat_vr;59.97699282622907;
5;LAMPE;Gemacht;q;1;6;16;9;q;1;1.3975243000022601;001;NSGC98;2019_Dec_05_1607;iat_vr;59.97699282622907;
5;KLEIDER;Gemacht;q;1;7;17;7;q;1;1.100121699997544;001;NSGC98;2019_Dec_05_1607;iat_vr;59.97699282622907;
5;STADT;Gemacht;q;1;8;18;6;q;1;0.6488804000000528;001;NSGC98;2019_Dec_05_1607;iat_vr;59.97699282622907;
5;STEIN;Natur;p;1;9;19;4;p;1;0.8083505000031437;001;NSGC98;2019_Dec_05_1607;iat_vr;59.97699282622907;
;;;;;;;;;;;001;NSGC98;2019_Dec_05_1607;iat_vr;59.97699282622907;
6;STEIN;Natur;p;0;0;0;4;p;1;1.7857490999995207;001;NSGC98;2019_Dec_05_1607;iat_vr;59.97699282622907;
6;STADT;Gemacht;q;0;1;1;6;q;1;0.765013899999758;001;NSGC98;2019_Dec_05_1607;iat_vr;59.97699282622907;
6;SCHLIMM;negativ;q;0;2;2;10;q;1;1.2142488999998022;001;NSGC98;2019_Dec_05_1607;iat_vr;59.97699282622907;
6;NEGATIV;negativ;q;0;3;3;12;q;1;0.8792208000013488;001;NSGC98;2019_Dec_05_1607;iat_vr;59.97699282622907;
6;BAUM;Natur;p;0;4;4;0;p;1;1.9321391999983462;001;NSGC98;2019_Dec_05_1607;iat_vr;59.97699282622907;
6;GEBÄUDE;Gemacht;q;0;5;5;5;q;1;0.9791007000021636;001;NSGC98;2019_Dec_05_1607;iat_vr;59.97699282622907;
6;BLUME;Natur;p;0;6;6;2;p;1;0.9856505999996443;001;NSGC98;2019_Dec_05_1607;iat_vr;59.97699282622907;
6;SCHÄDLICH;negativ;q;0;7;7;13;q;1;0.9017348000015772;001;NSGC98;2019_Dec_05_1607;iat_vr;59.97699282622907;
6;LAMPE;Gemacht;q;0;8;8;9;q;1;3.9150485999998637;001;NSGC98;2019_Dec_05_1607;iat_vr;59.97699282622907;
6;SCHWACH;negativ;q;0;9;9;14;q;1;1.7122693000019353;001;NSGC98;2019_Dec_05_1607;iat_vr;59.97699282622907;
6;GUT;positiv;p;0;10;10;19;p;1;0.6624219000004814;001;NSGC98;2019_Dec_05_1607;iat_vr;59.97699282622907;
6;WASSER;Natur;p;0;11;11;1;p;1;0.8190240000003541;001;NSGC98;2019_Dec_05_1607;iat_vr;59.97699282622907;
6;HERVORRAGEND;positiv;p;0;12;12;17;p;1;1.1102963000012096;001;NSGC98;2019_Dec_05_1607;iat_vr;59.97699282622907;
6;EINWANDFREI;positiv;p;0;13;13;16;p;1;0.5447112000001653;001;NSGC98;2019_Dec_05_1607;iat_vr;59.97699282622907;
6;SCHLECHT;negativ;q;0;14;14;11;q;1;0.6953127000015229;001;NSGC98;2019_Dec_05_1607;iat_vr;59.97699282622907;
6;KLEIDER;Gemacht;q;0;15;15;7;q;1;1.9306376000022283;001;NSGC98;2019_Dec_05_1607;iat_vr;59.97699282622907;
6;AUSGEZEICHNET;positiv;p;0;16;16;15;p;1;3.0445669000000635;001;NSGC98;2019_Dec_05_1607;iat_vr;59.97699282622907;
6;COMPUTER;Gemacht;q;0;17;17;8;q;1;1.0947949000001245;001;NSGC98;2019_Dec_05_1607;iat_vr;59.97699282622907;
6;TIER;Natur;p;0;18;18;3;p;1;0.698778999998467;001;NSGC98;2019_Dec_05_1607;iat_vr;59.97699282622907;
6;POSITIV;positiv;p;0;19;19;18;p;1;0.7456875999996555;001;NSGC98;2019_Dec_05_1607;iat_vr;59.97699282622907;
;;;;;;;;;;;001;NSGC98;2019_Dec_05_1607;iat_vr;59.97699282622907;
7;TIER;Natur;p;0;0;0;3;p;1;2.476618000000599;001;NSGC98;2019_Dec_05_1607;iat_vr;59.97699282622907;
7;BLUME;Natur;p;0;1;1;2;p;1;0.9325836999996682;001;NSGC98;2019_Dec_05_1607;iat_vr;59.97699282622907;
7;BAUM;Natur;p;0;2;2;0;p;1;0.6987855000006675;001;NSGC98;2019_Dec_05_1607;iat_vr;59.97699282622907;
7;NEGATIV;negativ;q;0;3;3;12;q;1;0.8631549999990966;001;NSGC98;2019_Dec_05_1607;iat_vr;59.97699282622907;
7;SCHLECHT;negativ;q;0;4;4;11;q;1;0.732292900000175;001;NSGC98;2019_Dec_05_1607;iat_vr;59.97699282622907;
7;HERVORRAGEND;positiv;p;0;5;5;17;p;1;0.891913299998123;001;NSGC98;2019_Dec_05_1607;iat_vr;59.97699282622907;
7;GEBÄUDE;Gemacht;q;0;6;6;5;q;1;1.6356287000016891;001;NSGC98;2019_Dec_05_1607;iat_vr;59.97699282622907;
7;STEIN;Natur;p;0;7;7;4;p;1;1.1627766999990854;001;NSGC98;2019_Dec_05_1607;iat_vr;59.97699282622907;
7;SCHLIMM;negativ;q;0;8;8;10;q;1;0.7341118000003917;001;NSGC98;2019_Dec_05_1607;iat_vr;59.97699282622907;
7;POSITIV;positiv;p;0;9;9;18;p;1;1.548151200000575;001;NSGC98;2019_Dec_05_1607;iat_vr;59.97699282622907;
7;COMPUTER;Gemacht;q;0;10;10;8;q;1;1.1473561999991944;001;NSGC98;2019_Dec_05_1607;iat_vr;59.97699282622907;
7;KLEIDER;Gemacht;q;0;11;11;7;q;1;1.1307747999999265;001;NSGC98;2019_Dec_05_1607;iat_vr;59.97699282622907;
7;STADT;Gemacht;q;0;12;12;6;q;1;0.5872621000016807;001;NSGC98;2019_Dec_05_1607;iat_vr;59.97699282622907;
7;SCHÄDLICH;negativ;q;0;13;13;13;q;1;2.7115063999990525;001;NSGC98;2019_Dec_05_1607;iat_vr;59.97699282622907;
7;WASSER;Natur;p;0;14;14;1;p;1;0.8144983999991382;001;NSGC98;2019_Dec_05_1607;iat_vr;59.97699282622907;
7;LAMPE;Gemacht;q;0;15;15;9;q;1;0.7686668000023928;001;NSGC98;2019_Dec_05_1607;iat_vr;59.97699282622907;
7;GUT;positiv;p;0;16;16;19;p;1;1.4793887000014365;001;NSGC98;2019_Dec_05_1607;iat_vr;59.97699282622907;
7;AUSGEZEICHNET;positiv;p;0;17;17;15;p;1;1.1188072000004468;001;NSGC98;2019_Dec_05_1607;iat_vr;59.97699282622907;
7;SCHWACH;negativ;q;0;18;18;14;q;1;0.8124475000004168;001;NSGC98;2019_Dec_05_1607;iat_vr;59.97699282622907;
7;EINWANDFREI;positiv;p;0;19;19;16;p;1;0.6783810000015364;001;NSGC98;2019_Dec_05_1607;iat_vr;59.97699282622907;
7;SCHÄDLICH;negativ;q;1;0;20;13;q;1;1.1948981000023196;001;NSGC98;2019_Dec_05_1607;iat_vr;59.97699282622907;
7;HERVORRAGEND;positiv;p;1;1;21;17;p;1;2.5469707999982347;001;NSGC98;2019_Dec_05_1607;iat_vr;59.97699282622907;
7;SCHLECHT;negativ;q;1;2;22;11;q;1;2.2004926999979944;001;NSGC98;2019_Dec_05_1607;iat_vr;59.97699282622907;
7;SCHWACH;negativ;q;1;3;23;14;q;1;0.9123910999987856;001;NSGC98;2019_Dec_05_1607;iat_vr;59.97699282622907;
7;EINWANDFREI;positiv;p;1;4;24;16;p;1;0.7603584999997111;001;NSGC98;2019_Dec_05_1607;iat_vr;59.97699282622907;
7;COMPUTER;Gemacht;q;1;5;25;8;q;1;0.8859130999990157;001;NSGC98;2019_Dec_05_1607;iat_vr;59.97699282622907;
7;WASSER;Natur;p;1;6;26;1;p;1;0.6850637999996252;001;NSGC98;2019_Dec_05_1607;iat_vr;59.97699282622907;
7;TIER;Natur;p;1;7;27;3;p;1;0.8654496999988623;001;NSGC98;2019_Dec_05_1607;iat_vr;59.97699282622907;
7;BAUM;Natur;p;1;8;28;0;p;1;0.8325242999999318;001;NSGC98;2019_Dec_05_1607;iat_vr;59.97699282622907;
7;STADT;Gemacht;q;1;9;29;6;q;1;0.5817612999999255;001;NSGC98;2019_Dec_05_1607;iat_vr;59.97699282622907;
7;POSITIV;positiv;p;1;10;30;18;p;1;0.861969699999463;001;NSGC98;2019_Dec_05_1607;iat_vr;59.97699282622907;
7;BLUME;Natur;p;1;11;31;2;p;1;1.6973918000003323;001;NSGC98;2019_Dec_05_1607;iat_vr;59.97699282622907;
7;GEBÄUDE;Gemacht;q;1;12;32;5;q;1;0.6842250000008789;001;NSGC98;2019_Dec_05_1607;iat_vr;59.97699282622907;
7;NEGATIV;negativ;q;1;13;33;12;q;1;0.8109317999987979;001;NSGC98;2019_Dec_05_1607;iat_vr;59.97699282622907;
7;STEIN;Natur;p;1;14;34;4;p;1;1.3496388999992632;001;NSGC98;2019_Dec_05_1607;iat_vr;59.97699282622907;
7;KLEIDER;Gemacht;q;1;15;35;7;q;1;0.652329100001225;001;NSGC98;2019_Dec_05_1607;iat_vr;59.97699282622907;
7;LAMPE;Gemacht;q;1;16;36;9;q;1;0.9964295999998285;001;NSGC98;2019_Dec_05_1607;iat_vr;59.97699282622907;
7;SCHLIMM;negativ;q;1;17;37;10;q;1;0.7971853999988525;001;NSGC98;2019_Dec_05_1607;iat_vr;59.97699282622907;
7;AUSGEZEICHNET;positiv;p;1;18;38;15;p;1;0.7270193999975163;001;NSGC98;2019_Dec_05_1607;iat_vr;59.97699282622907;
7;GUT;positiv;p;1;19;39;19;p;1;0.581613099999231;001;NSGC98;2019_Dec_05_1607;iat_vr;59.97699282622907;
;;;;;;;;;;;001;NSGC98;2019_Dec_05_1607;iat_vr;59.97699282622907;
