Block;Word;Category;CorrResp;trials.thisRepN;trials.thisTrialN;trials.thisN;trials.thisIndex;key_resp_2.keys;key_resp_2.corr;key_resp_2.rt;session;participant;date;expName;frameRate;
1;WASSER;Natur;q;0;0;0;1;q;1;1.2399771000000328;002;NSGS90;2019_Dec_06_1726;iat_vr;60.0138151802701;
1;COMPUTER;Gemacht;p;0;1;1;8;p;1;0.6496451000002708;002;NSGS90;2019_Dec_06_1726;iat_vr;60.0138151802701;
1;TIER;Natur;q;0;2;2;3;q;1;1.061887200000001;002;NSGS90;2019_Dec_06_1726;iat_vr;60.0138151802701;
1;STADT;Gemacht;p;0;3;3;6;p;1;0.6934298999999555;002;NSGS90;2019_Dec_06_1726;iat_vr;60.0138151802701;
1;LAMPE;Gemacht;p;0;4;4;9;p;1;0.7855954000001475;002;NSGS90;2019_Dec_06_1726;iat_vr;60.0138151802701;
1;STEIN;Natur;q;0;5;5;4;q;1;0.9086578999999801;002;NSGS90;2019_Dec_06_1726;iat_vr;60.0138151802701;
1;BLUME;Natur;q;0;6;6;2;q;1;0.5332929000001059;002;NSGS90;2019_Dec_06_1726;iat_vr;60.0138151802701;
1;GEBÄUDE;Gemacht;p;0;7;7;5;p;1;0.6611895999999433;002;NSGS90;2019_Dec_06_1726;iat_vr;60.0138151802701;
1;BAUM;Natur;q;0;8;8;0;q;1;0.6682556000000659;002;NSGS90;2019_Dec_06_1726;iat_vr;60.0138151802701;
1;KLEIDER;Gemacht;p;0;9;9;7;p;1;1.6793877000000066;002;NSGS90;2019_Dec_06_1726;iat_vr;60.0138151802701;
1;STEIN;Natur;q;1;0;10;4;q;1;0.9309158999999454;002;NSGS90;2019_Dec_06_1726;iat_vr;60.0138151802701;
1;STADT;Gemacht;p;1;1;11;6;p;1;0.7649682999999641;002;NSGS90;2019_Dec_06_1726;iat_vr;60.0138151802701;
1;KLEIDER;Gemacht;p;1;2;12;7;q;0;1.0963888999999654;002;NSGS90;2019_Dec_06_1726;iat_vr;60.0138151802701;
1;BAUM;Natur;q;1;3;13;0;q;1;2.282945599999948;002;NSGS90;2019_Dec_06_1726;iat_vr;60.0138151802701;
1;BLUME;Natur;q;1;4;14;2;q;1;0.9780387000000701;002;NSGS90;2019_Dec_06_1726;iat_vr;60.0138151802701;
1;COMPUTER;Gemacht;p;1;5;15;8;p;1;0.5190510000002178;002;NSGS90;2019_Dec_06_1726;iat_vr;60.0138151802701;
1;WASSER;Natur;q;1;6;16;1;q;1;0.6309124000003976;002;NSGS90;2019_Dec_06_1726;iat_vr;60.0138151802701;
1;GEBÄUDE;Gemacht;p;1;7;17;5;p;1;0.7285557999998673;002;NSGS90;2019_Dec_06_1726;iat_vr;60.0138151802701;
1;LAMPE;Gemacht;p;1;8;18;9;p;1;0.5511626000002252;002;NSGS90;2019_Dec_06_1726;iat_vr;60.0138151802701;
1;TIER;Natur;q;1;9;19;3;q;1;1.5017224000002898;002;NSGS90;2019_Dec_06_1726;iat_vr;60.0138151802701;
;;;;;;;;;;;002;NSGS90;2019_Dec_06_1726;iat_vr;60.0138151802701;
2;GUT;positiv;p;0;0;0;9;p;1;0.7171274999996058;002;NSGS90;2019_Dec_06_1726;iat_vr;60.0138151802701;
2;SCHLIMM;negativ;q;0;1;1;0;q;1;0.6169421000004149;002;NSGS90;2019_Dec_06_1726;iat_vr;60.0138151802701;
2;SCHÄDLICH;negativ;q;0;2;2;3;q;1;0.862628500000028;002;NSGS90;2019_Dec_06_1726;iat_vr;60.0138151802701;
2;SCHLECHT;negativ;q;0;3;3;1;q;1;0.595629899999949;002;NSGS90;2019_Dec_06_1726;iat_vr;60.0138151802701;
2;HERVORRAGEND;positiv;p;0;4;4;7;p;1;0.5489655000001221;002;NSGS90;2019_Dec_06_1726;iat_vr;60.0138151802701;
2;EINWANDFREI;positiv;p;0;5;5;6;p;1;0.5928552000000309;002;NSGS90;2019_Dec_06_1726;iat_vr;60.0138151802701;
2;AUSGEZEICHNET;positiv;p;0;6;6;5;p;1;0.9663323999998283;002;NSGS90;2019_Dec_06_1726;iat_vr;60.0138151802701;
2;NEGATIV;negativ;q;0;7;7;2;q;1;0.6516341000001376;002;NSGS90;2019_Dec_06_1726;iat_vr;60.0138151802701;
2;SCHWACH;negativ;q;0;8;8;4;q;1;0.9984583000000384;002;NSGS90;2019_Dec_06_1726;iat_vr;60.0138151802701;
2;POSITIV;positiv;p;0;9;9;8;p;1;0.6478056999999353;002;NSGS90;2019_Dec_06_1726;iat_vr;60.0138151802701;
2;SCHLECHT;negativ;q;1;0;10;1;q;1;0.9133073000002696;002;NSGS90;2019_Dec_06_1726;iat_vr;60.0138151802701;
2;EINWANDFREI;positiv;p;1;1;11;6;p;1;1.335351400000036;002;NSGS90;2019_Dec_06_1726;iat_vr;60.0138151802701;
2;HERVORRAGEND;positiv;p;1;2;12;7;p;1;0.6933859999999186;002;NSGS90;2019_Dec_06_1726;iat_vr;60.0138151802701;
2;SCHWACH;negativ;q;1;3;13;4;q;1;0.7310216000000764;002;NSGS90;2019_Dec_06_1726;iat_vr;60.0138151802701;
2;AUSGEZEICHNET;positiv;p;1;4;14;5;p;1;0.9930957000001399;002;NSGS90;2019_Dec_06_1726;iat_vr;60.0138151802701;
2;SCHLIMM;negativ;q;1;5;15;0;q;1;0.8000532000000931;002;NSGS90;2019_Dec_06_1726;iat_vr;60.0138151802701;
2;NEGATIV;negativ;q;1;6;16;2;q;1;0.8020633000000998;002;NSGS90;2019_Dec_06_1726;iat_vr;60.0138151802701;
2;POSITIV;positiv;p;1;7;17;8;p;1;0.5856192000001101;002;NSGS90;2019_Dec_06_1726;iat_vr;60.0138151802701;
2;GUT;positiv;p;1;8;18;9;p;1;0.6495115999996415;002;NSGS90;2019_Dec_06_1726;iat_vr;60.0138151802701;
2;SCHÄDLICH;negativ;q;1;9;19;3;q;1;0.7629703000002337;002;NSGS90;2019_Dec_06_1726;iat_vr;60.0138151802701;
;;;;;;;;;;;002;NSGS90;2019_Dec_06_1726;iat_vr;60.0138151802701;
3;WASSER;Natur;q;0;0;0;11;q;1;0.8794803000000684;002;NSGS90;2019_Dec_06_1726;iat_vr;60.0138151802701;
3;SCHLECHT;negativ;q;0;1;1;1;q;1;0.7190792999999758;002;NSGS90;2019_Dec_06_1726;iat_vr;60.0138151802701;
3;TIER;Natur;q;0;2;2;13;q;1;0.8982868999996754;002;NSGS90;2019_Dec_06_1726;iat_vr;60.0138151802701;
3;BLUME;Natur;q;0;3;3;12;q;1;0.6815640999998323;002;NSGS90;2019_Dec_06_1726;iat_vr;60.0138151802701;
3;NEGATIV;negativ;q;0;4;4;2;q;1;0.5451725000002625;002;NSGS90;2019_Dec_06_1726;iat_vr;60.0138151802701;
3;LAMPE;Gemacht;p;0;5;5;19;p;1;0.6667711999998573;002;NSGS90;2019_Dec_06_1726;iat_vr;60.0138151802701;
3;SCHÄDLICH;negativ;q;0;6;6;3;q;1;0.8673320000002605;002;NSGS90;2019_Dec_06_1726;iat_vr;60.0138151802701;
3;BAUM;Natur;q;0;7;7;10;q;1;1.131304;002;NSGS90;2019_Dec_06_1726;iat_vr;60.0138151802701;
3;EINWANDFREI;positiv;p;0;8;8;6;p;1;1.1770021000002089;002;NSGS90;2019_Dec_06_1726;iat_vr;60.0138151802701;
3;STADT;Gemacht;p;0;9;9;16;p;1;0.5480585999998766;002;NSGS90;2019_Dec_06_1726;iat_vr;60.0138151802701;
3;SCHLIMM;negativ;q;0;10;10;0;q;1;0.9187918999996327;002;NSGS90;2019_Dec_06_1726;iat_vr;60.0138151802701;
3;GUT;positiv;p;0;11;11;9;p;1;0.5457780000001549;002;NSGS90;2019_Dec_06_1726;iat_vr;60.0138151802701;
3;POSITIV;positiv;p;0;12;12;8;p;1;0.8123642999998992;002;NSGS90;2019_Dec_06_1726;iat_vr;60.0138151802701;
3;COMPUTER;Gemacht;p;0;13;13;18;p;1;0.6505648000002111;002;NSGS90;2019_Dec_06_1726;iat_vr;60.0138151802701;
3;SCHWACH;negativ;q;0;14;14;4;q;1;0.8685961999999563;002;NSGS90;2019_Dec_06_1726;iat_vr;60.0138151802701;
3;AUSGEZEICHNET;positiv;p;0;15;15;5;p;1;0.5931276999999682;002;NSGS90;2019_Dec_06_1726;iat_vr;60.0138151802701;
3;HERVORRAGEND;positiv;p;0;16;16;7;p;1;0.6352514999998675;002;NSGS90;2019_Dec_06_1726;iat_vr;60.0138151802701;
3;KLEIDER;Gemacht;p;0;17;17;17;p;1;1.0673876999999266;002;NSGS90;2019_Dec_06_1726;iat_vr;60.0138151802701;
3;GEBÄUDE;Gemacht;p;0;18;18;15;p;1;0.595582800000102;002;NSGS90;2019_Dec_06_1726;iat_vr;60.0138151802701;
3;STEIN;Natur;q;0;19;19;14;q;1;0.6482960000003004;002;NSGS90;2019_Dec_06_1726;iat_vr;60.0138151802701;
;;;;;;;;;;;002;NSGS90;2019_Dec_06_1726;iat_vr;60.0138151802701;
4;STADT;Gemacht;p;0;0;0;16;p;1;0.6880768999999418;002;NSGS90;2019_Dec_06_1726;iat_vr;60.0138151802701;
4;GUT;positiv;p;0;1;1;9;p;1;0.6485469000003832;002;NSGS90;2019_Dec_06_1726;iat_vr;60.0138151802701;
4;SCHWACH;negativ;q;0;2;2;4;q;1;0.6964763000000858;002;NSGS90;2019_Dec_06_1726;iat_vr;60.0138151802701;
4;AUSGEZEICHNET;positiv;p;0;3;3;5;p;1;1.3615979000001062;002;NSGS90;2019_Dec_06_1726;iat_vr;60.0138151802701;
4;TIER;Natur;q;0;4;4;13;q;1;0.8150222999997823;002;NSGS90;2019_Dec_06_1726;iat_vr;60.0138151802701;
4;LAMPE;Gemacht;p;0;5;5;19;p;1;0.5973619999999755;002;NSGS90;2019_Dec_06_1726;iat_vr;60.0138151802701;
4;SCHLECHT;negativ;q;0;6;6;1;q;1;0.9011172999998962;002;NSGS90;2019_Dec_06_1726;iat_vr;60.0138151802701;
4;WASSER;Natur;q;0;7;7;11;p;0;0.5813963999999032;002;NSGS90;2019_Dec_06_1726;iat_vr;60.0138151802701;
4;GEBÄUDE;Gemacht;p;0;8;8;15;p;1;0.7182749000003241;002;NSGS90;2019_Dec_06_1726;iat_vr;60.0138151802701;
4;BAUM;Natur;q;0;9;9;10;q;1;0.7339943000001767;002;NSGS90;2019_Dec_06_1726;iat_vr;60.0138151802701;
4;EINWANDFREI;positiv;p;0;10;10;6;p;1;1.0334938999999395;002;NSGS90;2019_Dec_06_1726;iat_vr;60.0138151802701;
4;STEIN;Natur;q;0;11;11;14;q;1;0.6673001999997723;002;NSGS90;2019_Dec_06_1726;iat_vr;60.0138151802701;
4;BLUME;Natur;q;0;12;12;12;q;1;0.5351765999998861;002;NSGS90;2019_Dec_06_1726;iat_vr;60.0138151802701;
4;HERVORRAGEND;positiv;p;0;13;13;7;p;1;0.613841500000035;002;NSGS90;2019_Dec_06_1726;iat_vr;60.0138151802701;
4;POSITIV;positiv;p;0;14;14;8;p;1;0.566549500000292;002;NSGS90;2019_Dec_06_1726;iat_vr;60.0138151802701;
4;NEGATIV;negativ;q;0;15;15;2;q;1;0.5293225000000348;002;NSGS90;2019_Dec_06_1726;iat_vr;60.0138151802701;
4;SCHÄDLICH;negativ;q;0;16;16;3;q;1;0.5616283999997904;002;NSGS90;2019_Dec_06_1726;iat_vr;60.0138151802701;
4;KLEIDER;Gemacht;p;0;17;17;17;p;1;1.316190000000006;002;NSGS90;2019_Dec_06_1726;iat_vr;60.0138151802701;
4;COMPUTER;Gemacht;p;0;18;18;18;p;1;0.6460710999999719;002;NSGS90;2019_Dec_06_1726;iat_vr;60.0138151802701;
4;SCHLIMM;negativ;q;0;19;19;0;q;1;0.8685290999997051;002;NSGS90;2019_Dec_06_1726;iat_vr;60.0138151802701;
4;WASSER;Natur;q;1;0;20;11;q;1;0.5996098000000529;002;NSGS90;2019_Dec_06_1726;iat_vr;60.0138151802701;
4;BLUME;Natur;q;1;1;21;12;q;1;0.5524476999999024;002;NSGS90;2019_Dec_06_1726;iat_vr;60.0138151802701;
4;POSITIV;positiv;p;1;2;22;8;p;1;0.8650693999998111;002;NSGS90;2019_Dec_06_1726;iat_vr;60.0138151802701;
4;AUSGEZEICHNET;positiv;p;1;3;23;5;p;1;0.5449677000001429;002;NSGS90;2019_Dec_06_1726;iat_vr;60.0138151802701;
4;HERVORRAGEND;positiv;p;1;4;24;7;p;1;0.4601125000003776;002;NSGS90;2019_Dec_06_1726;iat_vr;60.0138151802701;
4;LAMPE;Gemacht;p;1;5;25;19;p;1;0.7364594000000579;002;NSGS90;2019_Dec_06_1726;iat_vr;60.0138151802701;
4;EINWANDFREI;positiv;p;1;6;26;6;p;1;0.5960347999998703;002;NSGS90;2019_Dec_06_1726;iat_vr;60.0138151802701;
4;KLEIDER;Gemacht;p;1;7;27;17;p;1;1.6788148999999066;002;NSGS90;2019_Dec_06_1726;iat_vr;60.0138151802701;
4;NEGATIV;negativ;q;1;8;28;2;p;0;0.8835841999998593;002;NSGS90;2019_Dec_06_1726;iat_vr;60.0138151802701;
4;TIER;Natur;q;1;9;29;13;q;1;1.3646487999999408;002;NSGS90;2019_Dec_06_1726;iat_vr;60.0138151802701;
4;SCHÄDLICH;negativ;q;1;10;30;3;q;1;0.7474893999997221;002;NSGS90;2019_Dec_06_1726;iat_vr;60.0138151802701;
4;GUT;positiv;p;1;11;31;9;p;1;0.8823511999999027;002;NSGS90;2019_Dec_06_1726;iat_vr;60.0138151802701;
4;SCHWACH;negativ;q;1;12;32;4;q;1;0.49983800000018164;002;NSGS90;2019_Dec_06_1726;iat_vr;60.0138151802701;
4;SCHLIMM;negativ;q;1;13;33;0;q;1;0.7335118000000875;002;NSGS90;2019_Dec_06_1726;iat_vr;60.0138151802701;
4;STEIN;Natur;q;1;14;34;14;q;1;0.6521158999998988;002;NSGS90;2019_Dec_06_1726;iat_vr;60.0138151802701;
4;COMPUTER;Gemacht;p;1;15;35;18;p;1;0.6296121000000312;002;NSGS90;2019_Dec_06_1726;iat_vr;60.0138151802701;
4;BAUM;Natur;q;1;16;36;10;q;1;1.2989087999999356;002;NSGS90;2019_Dec_06_1726;iat_vr;60.0138151802701;
4;STADT;Gemacht;p;1;17;37;16;p;1;0.6833919000000606;002;NSGS90;2019_Dec_06_1726;iat_vr;60.0138151802701;
4;SCHLECHT;negativ;q;1;18;38;1;q;1;0.6456194000002142;002;NSGS90;2019_Dec_06_1726;iat_vr;60.0138151802701;
4;GEBÄUDE;Gemacht;p;1;19;39;15;p;1;0.7137308000001212;002;NSGS90;2019_Dec_06_1726;iat_vr;60.0138151802701;
;;;;;;;;;;;002;NSGS90;2019_Dec_06_1726;iat_vr;60.0138151802701;
5;STADT;Gemacht;q;0;0;0;6;q;1;0.8710766999997759;002;NSGS90;2019_Dec_06_1726;iat_vr;60.0138151802701;
5;BLUME;Natur;p;0;1;1;2;p;1;1.016139899999871;002;NSGS90;2019_Dec_06_1726;iat_vr;60.0138151802701;
5;WASSER;Natur;p;0;2;2;1;p;1;0.6620261000002756;002;NSGS90;2019_Dec_06_1726;iat_vr;60.0138151802701;
5;LAMPE;Gemacht;q;0;3;3;9;q;1;0.7515686000001551;002;NSGS90;2019_Dec_06_1726;iat_vr;60.0138151802701;
5;COMPUTER;Gemacht;q;0;4;4;8;q;1;0.48045890000003055;002;NSGS90;2019_Dec_06_1726;iat_vr;60.0138151802701;
5;GEBÄUDE;Gemacht;q;0;5;5;5;q;1;0.7998796000001676;002;NSGS90;2019_Dec_06_1726;iat_vr;60.0138151802701;
5;KLEIDER;Gemacht;q;0;6;6;7;q;1;0.6462845000000925;002;NSGS90;2019_Dec_06_1726;iat_vr;60.0138151802701;
5;STEIN;Natur;p;0;7;7;4;p;1;0.6833080999999765;002;NSGS90;2019_Dec_06_1726;iat_vr;60.0138151802701;
5;BAUM;Natur;p;0;8;8;0;p;1;0.45289260000026843;002;NSGS90;2019_Dec_06_1726;iat_vr;60.0138151802701;
5;TIER;Natur;p;0;9;9;3;p;1;0.8470608000002358;002;NSGS90;2019_Dec_06_1726;iat_vr;60.0138151802701;
5;BAUM;Natur;p;1;0;10;0;p;1;0.6685207999998966;002;NSGS90;2019_Dec_06_1726;iat_vr;60.0138151802701;
5;COMPUTER;Gemacht;q;1;1;11;8;q;1;1.0122483999998622;002;NSGS90;2019_Dec_06_1726;iat_vr;60.0138151802701;
5;WASSER;Natur;p;1;2;12;1;p;1;0.6467726999999286;002;NSGS90;2019_Dec_06_1726;iat_vr;60.0138151802701;
5;LAMPE;Gemacht;q;1;3;13;9;q;1;0.7358651999998074;002;NSGS90;2019_Dec_06_1726;iat_vr;60.0138151802701;
5;STADT;Gemacht;q;1;4;14;6;q;1;0.7648044000002301;002;NSGS90;2019_Dec_06_1726;iat_vr;60.0138151802701;
5;TIER;Natur;p;1;5;15;3;p;1;0.8155451000002358;002;NSGS90;2019_Dec_06_1726;iat_vr;60.0138151802701;
5;STEIN;Natur;p;1;6;16;4;p;1;1.148402399999668;002;NSGS90;2019_Dec_06_1726;iat_vr;60.0138151802701;
5;GEBÄUDE;Gemacht;q;1;7;17;5;q;1;0.829635000000053;002;NSGS90;2019_Dec_06_1726;iat_vr;60.0138151802701;
5;BLUME;Natur;p;1;8;18;2;p;1;1.0321459000001596;002;NSGS90;2019_Dec_06_1726;iat_vr;60.0138151802701;
5;KLEIDER;Gemacht;q;1;9;19;7;q;1;1.7639305999996395;002;NSGS90;2019_Dec_06_1726;iat_vr;60.0138151802701;
;;;;;;;;;;;002;NSGS90;2019_Dec_06_1726;iat_vr;60.0138151802701;
6;BLUME;Natur;p;0;0;0;2;p;1;0.6451317000000927;002;NSGS90;2019_Dec_06_1726;iat_vr;60.0138151802701;
6;KLEIDER;Gemacht;q;0;1;1;7;q;1;0.8797042000001056;002;NSGS90;2019_Dec_06_1726;iat_vr;60.0138151802701;
6;POSITIV;positiv;p;0;2;2;18;p;1;0.7786412000000382;002;NSGS90;2019_Dec_06_1726;iat_vr;60.0138151802701;
6;EINWANDFREI;positiv;p;0;3;3;16;p;1;1.2160357000002477;002;NSGS90;2019_Dec_06_1726;iat_vr;60.0138151802701;
6;SCHLECHT;negativ;q;0;4;4;11;q;1;0.6443942000000789;002;NSGS90;2019_Dec_06_1726;iat_vr;60.0138151802701;
6;BAUM;Natur;p;0;5;5;0;p;1;0.8331676000002517;002;NSGS90;2019_Dec_06_1726;iat_vr;60.0138151802701;
6;SCHWACH;negativ;q;0;6;6;14;q;1;0.8688544999999976;002;NSGS90;2019_Dec_06_1726;iat_vr;60.0138151802701;
6;SCHÄDLICH;negativ;q;0;7;7;13;q;1;0.6690228000002207;002;NSGS90;2019_Dec_06_1726;iat_vr;60.0138151802701;
6;GEBÄUDE;Gemacht;q;0;8;8;5;q;1;0.4798894000000473;002;NSGS90;2019_Dec_06_1726;iat_vr;60.0138151802701;
6;TIER;Natur;p;0;9;9;3;p;1;0.6832315999999992;002;NSGS90;2019_Dec_06_1726;iat_vr;60.0138151802701;
6;WASSER;Natur;p;0;10;10;1;p;1;0.8339518999996471;002;NSGS90;2019_Dec_06_1726;iat_vr;60.0138151802701;
6;COMPUTER;Gemacht;q;0;11;11;8;q;1;1.1005662000002303;002;NSGS90;2019_Dec_06_1726;iat_vr;60.0138151802701;
6;GUT;positiv;p;0;12;12;19;q;0;0.5023721000002297;002;NSGS90;2019_Dec_06_1726;iat_vr;60.0138151802701;
6;HERVORRAGEND;positiv;p;0;13;13;17;p;1;1.3104182999995828;002;NSGS90;2019_Dec_06_1726;iat_vr;60.0138151802701;
6;STADT;Gemacht;q;0;14;14;6;q;1;1.718521199999941;002;NSGS90;2019_Dec_06_1726;iat_vr;60.0138151802701;
6;SCHLIMM;negativ;q;0;15;15;10;q;1;1.2143624999998792;002;NSGS90;2019_Dec_06_1726;iat_vr;60.0138151802701;
6;AUSGEZEICHNET;positiv;p;0;16;16;15;p;1;0.6253118999998151;002;NSGS90;2019_Dec_06_1726;iat_vr;60.0138151802701;
6;NEGATIV;negativ;q;0;17;17;12;q;1;0.8992929999999433;002;NSGS90;2019_Dec_06_1726;iat_vr;60.0138151802701;
6;STEIN;Natur;p;0;18;18;4;p;1;1.4677207999998245;002;NSGS90;2019_Dec_06_1726;iat_vr;60.0138151802701;
6;LAMPE;Gemacht;q;0;19;19;9;q;1;0.8134075000002667;002;NSGS90;2019_Dec_06_1726;iat_vr;60.0138151802701;
;;;;;;;;;;;002;NSGS90;2019_Dec_06_1726;iat_vr;60.0138151802701;
7;STADT;Gemacht;q;0;0;0;6;p;0;0.6534727000002931;002;NSGS90;2019_Dec_06_1726;iat_vr;60.0138151802701;
7;GUT;positiv;p;0;1;1;19;q;0;0.3173908999997366;002;NSGS90;2019_Dec_06_1726;iat_vr;60.0138151802701;
7;EINWANDFREI;positiv;p;0;2;2;16;p;1;1.6516814999999951;002;NSGS90;2019_Dec_06_1726;iat_vr;60.0138151802701;
7;SCHLIMM;negativ;q;0;3;3;10;q;1;0.7809983000001921;002;NSGS90;2019_Dec_06_1726;iat_vr;60.0138151802701;
7;HERVORRAGEND;positiv;p;0;4;4;17;p;1;0.6757984000000761;002;NSGS90;2019_Dec_06_1726;iat_vr;60.0138151802701;
7;SCHLECHT;negativ;q;0;5;5;11;q;1;0.8498964000000342;002;NSGS90;2019_Dec_06_1726;iat_vr;60.0138151802701;
7;GEBÄUDE;Gemacht;q;0;6;6;5;q;1;1.0688015000000632;002;NSGS90;2019_Dec_06_1726;iat_vr;60.0138151802701;
7;POSITIV;positiv;p;0;7;7;18;p;1;0.8272554999998647;002;NSGS90;2019_Dec_06_1726;iat_vr;60.0138151802701;
7;WASSER;Natur;p;0;8;8;1;p;1;0.5162786999999298;002;NSGS90;2019_Dec_06_1726;iat_vr;60.0138151802701;
7;BAUM;Natur;p;0;9;9;0;p;1;0.5355951999999888;002;NSGS90;2019_Dec_06_1726;iat_vr;60.0138151802701;
7;SCHWACH;negativ;q;0;10;10;14;q;1;0.9322236000002704;002;NSGS90;2019_Dec_06_1726;iat_vr;60.0138151802701;
7;BLUME;Natur;p;0;11;11;2;p;1;0.5648253999997905;002;NSGS90;2019_Dec_06_1726;iat_vr;60.0138151802701;
7;NEGATIV;negativ;q;0;12;12;12;q;1;0.8130310999999892;002;NSGS90;2019_Dec_06_1726;iat_vr;60.0138151802701;
7;STEIN;Natur;p;0;13;13;4;p;1;0.8304441000000224;002;NSGS90;2019_Dec_06_1726;iat_vr;60.0138151802701;
7;KLEIDER;Gemacht;q;0;14;14;7;q;1;0.6314142000001084;002;NSGS90;2019_Dec_06_1726;iat_vr;60.0138151802701;
7;TIER;Natur;p;0;15;15;3;p;1;0.895274800000152;002;NSGS90;2019_Dec_06_1726;iat_vr;60.0138151802701;
7;LAMPE;Gemacht;q;0;16;16;9;q;1;0.7816855999999461;002;NSGS90;2019_Dec_06_1726;iat_vr;60.0138151802701;
7;COMPUTER;Gemacht;q;0;17;17;8;q;1;1.8266862000000401;002;NSGS90;2019_Dec_06_1726;iat_vr;60.0138151802701;
7;SCHÄDLICH;negativ;q;0;18;18;13;q;1;0.7004633999999896;002;NSGS90;2019_Dec_06_1726;iat_vr;60.0138151802701;
7;AUSGEZEICHNET;positiv;p;0;19;19;15;p;1;0.6292515000000094;002;NSGS90;2019_Dec_06_1726;iat_vr;60.0138151802701;
7;SCHÄDLICH;negativ;q;1;0;20;13;q;1;0.6174200999998902;002;NSGS90;2019_Dec_06_1726;iat_vr;60.0138151802701;
7;HERVORRAGEND;positiv;p;1;1;21;17;p;1;0.6675510999998551;002;NSGS90;2019_Dec_06_1726;iat_vr;60.0138151802701;
7;AUSGEZEICHNET;positiv;p;1;2;22;15;p;1;0.6485185000001366;002;NSGS90;2019_Dec_06_1726;iat_vr;60.0138151802701;
7;NEGATIV;negativ;q;1;3;23;12;q;1;0.7628399999998692;002;NSGS90;2019_Dec_06_1726;iat_vr;60.0138151802701;
7;STADT;Gemacht;q;1;4;24;6;q;1;1.4310623000001215;002;NSGS90;2019_Dec_06_1726;iat_vr;60.0138151802701;
7;GEBÄUDE;Gemacht;q;1;5;25;5;q;1;0.6131715999999869;002;NSGS90;2019_Dec_06_1726;iat_vr;60.0138151802701;
7;STEIN;Natur;p;1;6;26;4;p;1;0.895765400000073;002;NSGS90;2019_Dec_06_1726;iat_vr;60.0138151802701;
7;TIER;Natur;p;1;7;27;3;p;1;0.7688978000001043;002;NSGS90;2019_Dec_06_1726;iat_vr;60.0138151802701;
7;BLUME;Natur;p;1;8;28;2;p;1;0.565514400000211;002;NSGS90;2019_Dec_06_1726;iat_vr;60.0138151802701;
7;SCHLECHT;negativ;q;1;9;29;11;q;1;0.5945357999999032;002;NSGS90;2019_Dec_06_1726;iat_vr;60.0138151802701;
7;WASSER;Natur;p;1;10;30;1;p;1;0.5838037999997141;002;NSGS90;2019_Dec_06_1726;iat_vr;60.0138151802701;
7;COMPUTER;Gemacht;q;1;11;31;8;q;1;1.1184825000000274;002;NSGS90;2019_Dec_06_1726;iat_vr;60.0138151802701;
7;KLEIDER;Gemacht;q;1;12;32;7;q;1;1.3482209000003422;002;NSGS90;2019_Dec_06_1726;iat_vr;60.0138151802701;
7;GUT;positiv;p;1;13;33;19;p;1;0.7850619000000734;002;NSGS90;2019_Dec_06_1726;iat_vr;60.0138151802701;
7;BAUM;Natur;p;1;14;34;0;p;1;1.7984616999997343;002;NSGS90;2019_Dec_06_1726;iat_vr;60.0138151802701;
7;SCHLIMM;negativ;q;1;15;35;10;q;1;0.8482054999999491;002;NSGS90;2019_Dec_06_1726;iat_vr;60.0138151802701;
7;SCHWACH;negativ;q;1;16;36;14;q;1;0.6798451999998179;002;NSGS90;2019_Dec_06_1726;iat_vr;60.0138151802701;
7;POSITIV;positiv;p;1;17;37;18;p;1;0.5135607000001983;002;NSGS90;2019_Dec_06_1726;iat_vr;60.0138151802701;
7;EINWANDFREI;positiv;p;1;18;38;16;p;1;1.3087166999998772;002;NSGS90;2019_Dec_06_1726;iat_vr;60.0138151802701;
7;LAMPE;Gemacht;q;1;19;39;9;q;1;0.9646764999997686;002;NSGS90;2019_Dec_06_1726;iat_vr;60.0138151802701;
;;;;;;;;;;;002;NSGS90;2019_Dec_06_1726;iat_vr;60.0138151802701;
