Block;Word;Category;CorrResp;trials.thisRepN;trials.thisTrialN;trials.thisN;trials.thisIndex;key_resp_2.keys;key_resp_2.corr;key_resp_2.rt;session;participant;date;expName;frameRate;
1;GEBÄUDE;Gemacht;p;0;0;0;5;p;1;1.0642924000003404;002;NSIW98;2019_Dec_06_1301;iat_vr;59.9166559315576;
1;KLEIDER;Gemacht;p;0;1;1;7;p;1;0.6540737999998782;002;NSIW98;2019_Dec_06_1301;iat_vr;59.9166559315576;
1;COMPUTER;Gemacht;p;0;2;2;8;p;1;0.7008160000000316;002;NSIW98;2019_Dec_06_1301;iat_vr;59.9166559315576;
1;BAUM;Natur;q;0;3;3;0;q;1;0.6637602000000697;002;NSIW98;2019_Dec_06_1301;iat_vr;59.9166559315576;
1;BLUME;Natur;q;0;4;4;2;q;1;0.5810802000000876;002;NSIW98;2019_Dec_06_1301;iat_vr;59.9166559315576;
1;STADT;Gemacht;p;0;5;5;6;p;1;0.7099398999998812;002;NSIW98;2019_Dec_06_1301;iat_vr;59.9166559315576;
1;TIER;Natur;q;0;6;6;3;q;1;0.6151855000002797;002;NSIW98;2019_Dec_06_1301;iat_vr;59.9166559315576;
1;STEIN;Natur;q;0;7;7;4;q;1;0.5594678000002204;002;NSIW98;2019_Dec_06_1301;iat_vr;59.9166559315576;
1;LAMPE;Gemacht;p;0;8;8;9;p;1;0.8473653999999442;002;NSIW98;2019_Dec_06_1301;iat_vr;59.9166559315576;
1;WASSER;Natur;q;0;9;9;1;q;1;0.7274153000003025;002;NSIW98;2019_Dec_06_1301;iat_vr;59.9166559315576;
1;LAMPE;Gemacht;p;1;0;10;9;p;1;1.264918900000339;002;NSIW98;2019_Dec_06_1301;iat_vr;59.9166559315576;
1;GEBÄUDE;Gemacht;p;1;1;11;5;p;1;0.5641764000001785;002;NSIW98;2019_Dec_06_1301;iat_vr;59.9166559315576;
1;KLEIDER;Gemacht;p;1;2;12;7;p;1;0.4967303000003085;002;NSIW98;2019_Dec_06_1301;iat_vr;59.9166559315576;
1;TIER;Natur;q;1;3;13;3;q;1;0.6809649000001627;002;NSIW98;2019_Dec_06_1301;iat_vr;59.9166559315576;
1;COMPUTER;Gemacht;p;1;4;14;8;p;1;0.6468795999999202;002;NSIW98;2019_Dec_06_1301;iat_vr;59.9166559315576;
1;BAUM;Natur;q;1;5;15;0;q;1;0.499139600000035;002;NSIW98;2019_Dec_06_1301;iat_vr;59.9166559315576;
1;STADT;Gemacht;p;1;6;16;6;p;1;0.8485789000001205;002;NSIW98;2019_Dec_06_1301;iat_vr;59.9166559315576;
1;BLUME;Natur;q;1;7;17;2;q;1;0.49747290000004796;002;NSIW98;2019_Dec_06_1301;iat_vr;59.9166559315576;
1;WASSER;Natur;q;1;8;18;1;q;1;0.5144006000000445;002;NSIW98;2019_Dec_06_1301;iat_vr;59.9166559315576;
1;STEIN;Natur;q;1;9;19;4;q;1;0.5250717999997505;002;NSIW98;2019_Dec_06_1301;iat_vr;59.9166559315576;
;;;;;;;;;;;002;NSIW98;2019_Dec_06_1301;iat_vr;59.9166559315576;
2;EINWANDFREI;positiv;p;0;0;0;6;p;1;0.9822109000001547;002;NSIW98;2019_Dec_06_1301;iat_vr;59.9166559315576;
2;SCHÄDLICH;negativ;q;0;1;1;3;q;1;0.6570714999998017;002;NSIW98;2019_Dec_06_1301;iat_vr;59.9166559315576;
2;HERVORRAGEND;positiv;p;0;2;2;7;p;1;1.170590700000048;002;NSIW98;2019_Dec_06_1301;iat_vr;59.9166559315576;
2;GUT;positiv;p;0;3;3;9;p;1;0.6656619999998838;002;NSIW98;2019_Dec_06_1301;iat_vr;59.9166559315576;
2;SCHLIMM;negativ;q;0;4;4;0;q;1;0.762448200000108;002;NSIW98;2019_Dec_06_1301;iat_vr;59.9166559315576;
2;AUSGEZEICHNET;positiv;p;0;5;5;5;p;1;0.8228656999999657;002;NSIW98;2019_Dec_06_1301;iat_vr;59.9166559315576;
2;SCHWACH;negativ;q;0;6;6;4;q;1;0.6312135999996826;002;NSIW98;2019_Dec_06_1301;iat_vr;59.9166559315576;
2;POSITIV;positiv;p;0;7;7;8;p;1;0.6290920000001279;002;NSIW98;2019_Dec_06_1301;iat_vr;59.9166559315576;
2;NEGATIV;negativ;q;0;8;8;2;q;1;0.7476477999998679;002;NSIW98;2019_Dec_06_1301;iat_vr;59.9166559315576;
2;SCHLECHT;negativ;q;0;9;9;1;q;1;0.6632864000002883;002;NSIW98;2019_Dec_06_1301;iat_vr;59.9166559315576;
2;HERVORRAGEND;positiv;p;1;0;10;7;p;1;0.6118281000003662;002;NSIW98;2019_Dec_06_1301;iat_vr;59.9166559315576;
2;SCHLIMM;negativ;q;1;1;11;0;q;1;1.2963544999997794;002;NSIW98;2019_Dec_06_1301;iat_vr;59.9166559315576;
2;EINWANDFREI;positiv;p;1;2;12;6;p;1;0.596990999999889;002;NSIW98;2019_Dec_06_1301;iat_vr;59.9166559315576;
2;SCHLECHT;negativ;q;1;3;13;1;q;1;1.060719699999936;002;NSIW98;2019_Dec_06_1301;iat_vr;59.9166559315576;
2;GUT;positiv;p;1;4;14;9;p;1;0.7149881999998797;002;NSIW98;2019_Dec_06_1301;iat_vr;59.9166559315576;
2;SCHÄDLICH;negativ;q;1;5;15;3;q;1;0.9302911999998287;002;NSIW98;2019_Dec_06_1301;iat_vr;59.9166559315576;
2;SCHWACH;negativ;q;1;6;16;4;q;1;0.5632652999997845;002;NSIW98;2019_Dec_06_1301;iat_vr;59.9166559315576;
2;NEGATIV;negativ;q;1;7;17;2;q;1;0.5808775999998943;002;NSIW98;2019_Dec_06_1301;iat_vr;59.9166559315576;
2;POSITIV;positiv;p;1;8;18;8;p;1;0.528174399999898;002;NSIW98;2019_Dec_06_1301;iat_vr;59.9166559315576;
2;AUSGEZEICHNET;positiv;p;1;9;19;5;p;1;0.5774277999998958;002;NSIW98;2019_Dec_06_1301;iat_vr;59.9166559315576;
;;;;;;;;;;;002;NSIW98;2019_Dec_06_1301;iat_vr;59.9166559315576;
3;POSITIV;positiv;p;0;0;0;8;p;1;0.7852084999999533;002;NSIW98;2019_Dec_06_1301;iat_vr;59.9166559315576;
3;AUSGEZEICHNET;positiv;p;0;1;1;5;p;1;0.6452979000000596;002;NSIW98;2019_Dec_06_1301;iat_vr;59.9166559315576;
3;STEIN;Natur;q;0;2;2;14;q;1;1.4981050999999752;002;NSIW98;2019_Dec_06_1301;iat_vr;59.9166559315576;
3;HERVORRAGEND;positiv;p;0;3;3;7;p;1;0.854948499999864;002;NSIW98;2019_Dec_06_1301;iat_vr;59.9166559315576;
3;STADT;Gemacht;p;0;4;4;16;q;0;1.1791357999995853;002;NSIW98;2019_Dec_06_1301;iat_vr;59.9166559315576;
3;SCHLECHT;negativ;q;0;5;5;1;q;1;2.2130229999997937;002;NSIW98;2019_Dec_06_1301;iat_vr;59.9166559315576;
3;TIER;Natur;q;0;6;6;13;q;1;0.7486552999998821;002;NSIW98;2019_Dec_06_1301;iat_vr;59.9166559315576;
3;GEBÄUDE;Gemacht;p;0;7;7;15;p;1;2.4313648000002104;002;NSIW98;2019_Dec_06_1301;iat_vr;59.9166559315576;
3;NEGATIV;negativ;q;0;8;8;2;q;1;0.7144023000000743;002;NSIW98;2019_Dec_06_1301;iat_vr;59.9166559315576;
3;BLUME;Natur;q;0;9;9;12;q;1;0.8468425999999454;002;NSIW98;2019_Dec_06_1301;iat_vr;59.9166559315576;
3;EINWANDFREI;positiv;p;0;10;10;6;p;1;0.7962314000001243;002;NSIW98;2019_Dec_06_1301;iat_vr;59.9166559315576;
3;SCHÄDLICH;negativ;q;0;11;11;3;q;1;1.1904788000001645;002;NSIW98;2019_Dec_06_1301;iat_vr;59.9166559315576;
3;GUT;positiv;p;0;12;12;9;p;1;0.6328105999996296;002;NSIW98;2019_Dec_06_1301;iat_vr;59.9166559315576;
3;SCHWACH;negativ;q;0;13;13;4;q;1;0.6934971999999107;002;NSIW98;2019_Dec_06_1301;iat_vr;59.9166559315576;
3;SCHLIMM;negativ;q;0;14;14;0;q;1;0.6311713999998574;002;NSIW98;2019_Dec_06_1301;iat_vr;59.9166559315576;
3;LAMPE;Gemacht;p;0;15;15;19;p;1;2.2814769999999953;002;NSIW98;2019_Dec_06_1301;iat_vr;59.9166559315576;
3;KLEIDER;Gemacht;p;0;16;16;17;p;1;0.8639741000001777;002;NSIW98;2019_Dec_06_1301;iat_vr;59.9166559315576;
3;COMPUTER;Gemacht;p;0;17;17;18;p;1;0.6812638999999763;002;NSIW98;2019_Dec_06_1301;iat_vr;59.9166559315576;
3;WASSER;Natur;q;0;18;18;11;q;1;0.7478013999998439;002;NSIW98;2019_Dec_06_1301;iat_vr;59.9166559315576;
3;BAUM;Natur;q;0;19;19;10;q;1;0.49882419999994454;002;NSIW98;2019_Dec_06_1301;iat_vr;59.9166559315576;
;;;;;;;;;;;002;NSIW98;2019_Dec_06_1301;iat_vr;59.9166559315576;
4;STADT;Gemacht;p;0;0;0;16;p;1;1.0021618999999191;002;NSIW98;2019_Dec_06_1301;iat_vr;59.9166559315576;
4;POSITIV;positiv;p;0;1;1;8;p;1;1.344916099999864;002;NSIW98;2019_Dec_06_1301;iat_vr;59.9166559315576;
4;EINWANDFREI;positiv;p;0;2;2;6;p;1;0.745418200000131;002;NSIW98;2019_Dec_06_1301;iat_vr;59.9166559315576;
4;WASSER;Natur;q;0;3;3;11;q;1;0.6965835999999399;002;NSIW98;2019_Dec_06_1301;iat_vr;59.9166559315576;
4;STEIN;Natur;q;0;4;4;14;q;1;0.5525364000000081;002;NSIW98;2019_Dec_06_1301;iat_vr;59.9166559315576;
4;COMPUTER;Gemacht;p;0;5;5;18;p;1;0.9157451999999466;002;NSIW98;2019_Dec_06_1301;iat_vr;59.9166559315576;
4;SCHÄDLICH;negativ;q;0;6;6;3;q;1;0.8935268000000178;002;NSIW98;2019_Dec_06_1301;iat_vr;59.9166559315576;
4;KLEIDER;Gemacht;p;0;7;7;17;p;1;0.8804285999999593;002;NSIW98;2019_Dec_06_1301;iat_vr;59.9166559315576;
4;LAMPE;Gemacht;p;0;8;8;19;p;1;0.9967663000002176;002;NSIW98;2019_Dec_06_1301;iat_vr;59.9166559315576;
4;SCHLECHT;negativ;q;0;9;9;1;q;1;0.6136259999998401;002;NSIW98;2019_Dec_06_1301;iat_vr;59.9166559315576;
4;AUSGEZEICHNET;positiv;p;0;10;10;5;p;1;1.5941788000000088;002;NSIW98;2019_Dec_06_1301;iat_vr;59.9166559315576;
4;NEGATIV;negativ;q;0;11;11;2;q;1;0.8111124000001837;002;NSIW98;2019_Dec_06_1301;iat_vr;59.9166559315576;
4;GUT;positiv;p;0;12;12;9;p;1;0.5985595000001922;002;NSIW98;2019_Dec_06_1301;iat_vr;59.9166559315576;
4;SCHLIMM;negativ;q;0;13;13;0;q;1;0.5644889000000148;002;NSIW98;2019_Dec_06_1301;iat_vr;59.9166559315576;
4;TIER;Natur;q;0;14;14;13;q;1;0.7309390000000349;002;NSIW98;2019_Dec_06_1301;iat_vr;59.9166559315576;
4;HERVORRAGEND;positiv;p;0;15;15;7;p;1;0.9459068999999545;002;NSIW98;2019_Dec_06_1301;iat_vr;59.9166559315576;
4;GEBÄUDE;Gemacht;p;0;16;16;15;p;1;0.6970954999997048;002;NSIW98;2019_Dec_06_1301;iat_vr;59.9166559315576;
4;BLUME;Natur;q;0;17;17;12;p;0;2.947824800000035;002;NSIW98;2019_Dec_06_1301;iat_vr;59.9166559315576;
4;BAUM;Natur;q;0;18;18;10;q;1;0.8490866000001915;002;NSIW98;2019_Dec_06_1301;iat_vr;59.9166559315576;
4;SCHWACH;negativ;q;0;19;19;4;q;1;0.64650040000015;002;NSIW98;2019_Dec_06_1301;iat_vr;59.9166559315576;
4;SCHWACH;negativ;q;1;0;20;4;q;1;0.5173604000001433;002;NSIW98;2019_Dec_06_1301;iat_vr;59.9166559315576;
4;KLEIDER;Gemacht;p;1;1;21;17;p;1;0.6789017000000968;002;NSIW98;2019_Dec_06_1301;iat_vr;59.9166559315576;
4;COMPUTER;Gemacht;p;1;2;22;18;p;1;0.9290768999999273;002;NSIW98;2019_Dec_06_1301;iat_vr;59.9166559315576;
4;WASSER;Natur;q;1;3;23;11;q;1;0.6967236999998931;002;NSIW98;2019_Dec_06_1301;iat_vr;59.9166559315576;
4;BAUM;Natur;q;1;4;24;10;q;1;2.1635245999996187;002;NSIW98;2019_Dec_06_1301;iat_vr;59.9166559315576;
4;SCHLIMM;negativ;q;1;5;25;0;q;1;1.5028968000001441;002;NSIW98;2019_Dec_06_1301;iat_vr;59.9166559315576;
4;NEGATIV;negativ;q;1;6;26;2;q;1;0.4464100000000144;002;NSIW98;2019_Dec_06_1301;iat_vr;59.9166559315576;
4;SCHLECHT;negativ;q;1;7;27;1;q;1;0.4639060999998037;002;NSIW98;2019_Dec_06_1301;iat_vr;59.9166559315576;
4;SCHÄDLICH;negativ;q;1;8;28;3;q;1;0.48023890000013125;002;NSIW98;2019_Dec_06_1301;iat_vr;59.9166559315576;
4;EINWANDFREI;positiv;p;1;9;29;6;p;1;0.5288135000000693;002;NSIW98;2019_Dec_06_1301;iat_vr;59.9166559315576;
4;GEBÄUDE;Gemacht;p;1;10;30;15;p;1;0.5278010000001814;002;NSIW98;2019_Dec_06_1301;iat_vr;59.9166559315576;
4;STADT;Gemacht;p;1;11;31;16;p;1;0.5320389999997133;002;NSIW98;2019_Dec_06_1301;iat_vr;59.9166559315576;
4;GUT;positiv;p;1;12;32;9;p;1;0.7149600000002465;002;NSIW98;2019_Dec_06_1301;iat_vr;59.9166559315576;
4;TIER;Natur;q;1;13;33;13;q;1;0.5425522000000456;002;NSIW98;2019_Dec_06_1301;iat_vr;59.9166559315576;
4;STEIN;Natur;q;1;14;34;14;q;1;0.5655879999999343;002;NSIW98;2019_Dec_06_1301;iat_vr;59.9166559315576;
4;HERVORRAGEND;positiv;p;1;15;35;7;p;1;0.612000199999784;002;NSIW98;2019_Dec_06_1301;iat_vr;59.9166559315576;
4;LAMPE;Gemacht;p;1;16;36;19;p;1;1.128318600000057;002;NSIW98;2019_Dec_06_1301;iat_vr;59.9166559315576;
4;POSITIV;positiv;p;1;17;37;8;p;1;0.5977938000000904;002;NSIW98;2019_Dec_06_1301;iat_vr;59.9166559315576;
4;BLUME;Natur;q;1;18;38;12;q;1;1.164640700000291;002;NSIW98;2019_Dec_06_1301;iat_vr;59.9166559315576;
4;AUSGEZEICHNET;positiv;p;1;19;39;5;p;1;0.5770581000001584;002;NSIW98;2019_Dec_06_1301;iat_vr;59.9166559315576;
;;;;;;;;;;;002;NSIW98;2019_Dec_06_1301;iat_vr;59.9166559315576;
5;BLUME;Natur;p;0;0;0;2;p;1;1.2005905999999413;002;NSIW98;2019_Dec_06_1301;iat_vr;59.9166559315576;
5;STEIN;Natur;p;0;1;1;4;p;1;0.5976188999998158;002;NSIW98;2019_Dec_06_1301;iat_vr;59.9166559315576;
5;COMPUTER;Gemacht;q;0;2;2;8;q;1;0.7941460000001825;002;NSIW98;2019_Dec_06_1301;iat_vr;59.9166559315576;
5;STADT;Gemacht;q;0;3;3;6;q;1;1.0821814000000813;002;NSIW98;2019_Dec_06_1301;iat_vr;59.9166559315576;
5;BAUM;Natur;p;0;4;4;0;q;0;0.5490740999998707;002;NSIW98;2019_Dec_06_1301;iat_vr;59.9166559315576;
5;GEBÄUDE;Gemacht;q;0;5;5;5;p;0;1.0140213999998196;002;NSIW98;2019_Dec_06_1301;iat_vr;59.9166559315576;
5;KLEIDER;Gemacht;q;0;6;6;7;q;1;1.7805215000003045;002;NSIW98;2019_Dec_06_1301;iat_vr;59.9166559315576;
5;WASSER;Natur;p;0;7;7;1;p;1;0.6974534000000858;002;NSIW98;2019_Dec_06_1301;iat_vr;59.9166559315576;
5;LAMPE;Gemacht;q;0;8;8;9;q;1;0.89826979999998;002;NSIW98;2019_Dec_06_1301;iat_vr;59.9166559315576;
5;TIER;Natur;p;0;9;9;3;p;1;0.7670533000000432;002;NSIW98;2019_Dec_06_1301;iat_vr;59.9166559315576;
5;TIER;Natur;p;1;0;10;3;p;1;0.48415579999982583;002;NSIW98;2019_Dec_06_1301;iat_vr;59.9166559315576;
5;BLUME;Natur;p;1;1;11;2;p;1;0.5642084999999497;002;NSIW98;2019_Dec_06_1301;iat_vr;59.9166559315576;
5;LAMPE;Gemacht;q;1;2;12;9;q;1;0.5823181000000659;002;NSIW98;2019_Dec_06_1301;iat_vr;59.9166559315576;
5;BAUM;Natur;p;1;3;13;0;p;1;0.6522519999998622;002;NSIW98;2019_Dec_06_1301;iat_vr;59.9166559315576;
5;COMPUTER;Gemacht;q;1;4;14;8;q;1;0.6289646999998695;002;NSIW98;2019_Dec_06_1301;iat_vr;59.9166559315576;
5;STADT;Gemacht;q;1;5;15;6;q;1;1.1151659000001928;002;NSIW98;2019_Dec_06_1301;iat_vr;59.9166559315576;
5;GEBÄUDE;Gemacht;q;1;6;16;5;q;1;0.4984098999998423;002;NSIW98;2019_Dec_06_1301;iat_vr;59.9166559315576;
5;WASSER;Natur;p;1;7;17;1;p;1;0.7642666000001554;002;NSIW98;2019_Dec_06_1301;iat_vr;59.9166559315576;
5;STEIN;Natur;p;1;8;18;4;q;0;0.710551900000155;002;NSIW98;2019_Dec_06_1301;iat_vr;59.9166559315576;
5;KLEIDER;Gemacht;q;1;9;19;7;q;1;0.9482656999998653;002;NSIW98;2019_Dec_06_1301;iat_vr;59.9166559315576;
;;;;;;;;;;;002;NSIW98;2019_Dec_06_1301;iat_vr;59.9166559315576;
6;BAUM;Natur;p;0;0;0;0;p;1;0.9378084999998464;002;NSIW98;2019_Dec_06_1301;iat_vr;59.9166559315576;
6;POSITIV;positiv;p;0;1;1;18;p;1;0.4802144000000226;002;NSIW98;2019_Dec_06_1301;iat_vr;59.9166559315576;
6;GUT;positiv;p;0;2;2;19;p;1;0.7325928000000204;002;NSIW98;2019_Dec_06_1301;iat_vr;59.9166559315576;
6;BLUME;Natur;p;0;3;3;2;p;1;0.5650893999995787;002;NSIW98;2019_Dec_06_1301;iat_vr;59.9166559315576;
6;KLEIDER;Gemacht;q;0;4;4;7;q;1;0.8132550999998784;002;NSIW98;2019_Dec_06_1301;iat_vr;59.9166559315576;
6;SCHÄDLICH;negativ;q;0;5;5;13;q;1;0.580116199999793;002;NSIW98;2019_Dec_06_1301;iat_vr;59.9166559315576;
6;COMPUTER;Gemacht;q;0;6;6;8;q;1;2.98008770000024;002;NSIW98;2019_Dec_06_1301;iat_vr;59.9166559315576;
6;STEIN;Natur;p;0;7;7;4;q;0;0.8489571999998589;002;NSIW98;2019_Dec_06_1301;iat_vr;59.9166559315576;
6;NEGATIV;negativ;q;0;8;8;12;q;1;1.3463286000001062;002;NSIW98;2019_Dec_06_1301;iat_vr;59.9166559315576;
6;TIER;Natur;p;0;9;9;3;p;1;0.698928899999828;002;NSIW98;2019_Dec_06_1301;iat_vr;59.9166559315576;
6;AUSGEZEICHNET;positiv;p;0;10;10;15;p;1;0.7100790000004054;002;NSIW98;2019_Dec_06_1301;iat_vr;59.9166559315576;
6;GEBÄUDE;Gemacht;q;0;11;11;5;q;1;0.7300038000003042;002;NSIW98;2019_Dec_06_1301;iat_vr;59.9166559315576;
6;SCHLIMM;negativ;q;0;12;12;10;q;1;0.8949879000001602;002;NSIW98;2019_Dec_06_1301;iat_vr;59.9166559315576;
6;WASSER;Natur;p;0;13;13;1;p;1;0.6978951000000961;002;NSIW98;2019_Dec_06_1301;iat_vr;59.9166559315576;
6;SCHLECHT;negativ;q;0;14;14;11;q;1;0.9456869000000552;002;NSIW98;2019_Dec_06_1301;iat_vr;59.9166559315576;
6;SCHWACH;negativ;q;0;15;15;14;q;1;0.6480970000002344;002;NSIW98;2019_Dec_06_1301;iat_vr;59.9166559315576;
6;EINWANDFREI;positiv;p;0;16;16;16;p;1;0.9116897000003519;002;NSIW98;2019_Dec_06_1301;iat_vr;59.9166559315576;
6;STADT;Gemacht;q;0;17;17;6;q;1;0.7987481000000116;002;NSIW98;2019_Dec_06_1301;iat_vr;59.9166559315576;
6;LAMPE;Gemacht;q;0;18;18;9;q;1;0.9817298999996638;002;NSIW98;2019_Dec_06_1301;iat_vr;59.9166559315576;
6;HERVORRAGEND;positiv;p;0;19;19;17;p;1;0.6606369999999515;002;NSIW98;2019_Dec_06_1301;iat_vr;59.9166559315576;
;;;;;;;;;;;002;NSIW98;2019_Dec_06_1301;iat_vr;59.9166559315576;
7;LAMPE;Gemacht;q;0;0;0;9;q;1;0.6162476999998034;002;NSIW98;2019_Dec_06_1301;iat_vr;59.9166559315576;
7;NEGATIV;negativ;q;0;1;1;12;q;1;0.4807601999996223;002;NSIW98;2019_Dec_06_1301;iat_vr;59.9166559315576;
7;TIER;Natur;p;0;2;2;3;p;1;0.5490568000000167;002;NSIW98;2019_Dec_06_1301;iat_vr;59.9166559315576;
7;HERVORRAGEND;positiv;p;0;3;3;17;p;1;0.5939851000002818;002;NSIW98;2019_Dec_06_1301;iat_vr;59.9166559315576;
7;STADT;Gemacht;q;0;4;4;6;q;1;0.7451107000001684;002;NSIW98;2019_Dec_06_1301;iat_vr;59.9166559315576;
7;SCHÄDLICH;negativ;q;0;5;5;13;q;1;0.5329203999999663;002;NSIW98;2019_Dec_06_1301;iat_vr;59.9166559315576;
7;GUT;positiv;p;0;6;6;19;p;1;0.5850414000001365;002;NSIW98;2019_Dec_06_1301;iat_vr;59.9166559315576;
7;BLUME;Natur;p;0;7;7;2;p;1;0.6319081000001461;002;NSIW98;2019_Dec_06_1301;iat_vr;59.9166559315576;
7;SCHLECHT;negativ;q;0;8;8;11;q;1;0.69627249999985;002;NSIW98;2019_Dec_06_1301;iat_vr;59.9166559315576;
7;POSITIV;positiv;p;0;9;9;18;p;1;1.0308640999996896;002;NSIW98;2019_Dec_06_1301;iat_vr;59.9166559315576;
7;STEIN;Natur;p;0;10;10;4;p;1;1.3637157999996816;002;NSIW98;2019_Dec_06_1301;iat_vr;59.9166559315576;
7;GEBÄUDE;Gemacht;q;0;11;11;5;q;1;0.6295889000002717;002;NSIW98;2019_Dec_06_1301;iat_vr;59.9166559315576;
7;EINWANDFREI;positiv;p;0;12;12;16;p;1;0.6462934999999561;002;NSIW98;2019_Dec_06_1301;iat_vr;59.9166559315576;
7;SCHWACH;negativ;q;0;13;13;14;q;1;1.1447947000001477;002;NSIW98;2019_Dec_06_1301;iat_vr;59.9166559315576;
7;KLEIDER;Gemacht;q;0;14;14;7;q;1;0.7644669000001159;002;NSIW98;2019_Dec_06_1301;iat_vr;59.9166559315576;
7;SCHLIMM;negativ;q;0;15;15;10;q;1;0.5782196000000113;002;NSIW98;2019_Dec_06_1301;iat_vr;59.9166559315576;
7;COMPUTER;Gemacht;q;0;16;16;8;q;1;0.5307490999998663;002;NSIW98;2019_Dec_06_1301;iat_vr;59.9166559315576;
7;BAUM;Natur;p;0;17;17;0;p;1;0.5444554999999127;002;NSIW98;2019_Dec_06_1301;iat_vr;59.9166559315576;
7;AUSGEZEICHNET;positiv;p;0;18;18;15;p;1;0.5274018999998589;002;NSIW98;2019_Dec_06_1301;iat_vr;59.9166559315576;
7;WASSER;Natur;p;0;19;19;1;p;1;0.7809434999999212;002;NSIW98;2019_Dec_06_1301;iat_vr;59.9166559315576;
7;LAMPE;Gemacht;q;1;0;20;9;q;1;0.7157184000002417;002;NSIW98;2019_Dec_06_1301;iat_vr;59.9166559315576;
7;EINWANDFREI;positiv;p;1;1;21;16;p;1;0.526324399999794;002;NSIW98;2019_Dec_06_1301;iat_vr;59.9166559315576;
7;KLEIDER;Gemacht;q;1;2;22;7;q;1;0.5806024999997135;002;NSIW98;2019_Dec_06_1301;iat_vr;59.9166559315576;
7;WASSER;Natur;p;1;3;23;1;p;1;0.8470806000000266;002;NSIW98;2019_Dec_06_1301;iat_vr;59.9166559315576;
7;TIER;Natur;p;1;4;24;3;p;1;0.5819773000002897;002;NSIW98;2019_Dec_06_1301;iat_vr;59.9166559315576;
7;NEGATIV;negativ;q;1;5;25;12;q;1;0.6973746999997275;002;NSIW98;2019_Dec_06_1301;iat_vr;59.9166559315576;
7;GEBÄUDE;Gemacht;q;1;6;26;5;q;1;2.1142283999997744;002;NSIW98;2019_Dec_06_1301;iat_vr;59.9166559315576;
7;AUSGEZEICHNET;positiv;p;1;7;27;15;p;1;1.728179899999759;002;NSIW98;2019_Dec_06_1301;iat_vr;59.9166559315576;
7;HERVORRAGEND;positiv;p;1;8;28;17;p;1;0.6100931999999375;002;NSIW98;2019_Dec_06_1301;iat_vr;59.9166559315576;
7;BLUME;Natur;p;1;9;29;2;p;1;0.5469594999999572;002;NSIW98;2019_Dec_06_1301;iat_vr;59.9166559315576;
7;COMPUTER;Gemacht;q;1;10;30;8;q;1;0.5791350000004059;002;NSIW98;2019_Dec_06_1301;iat_vr;59.9166559315576;
7;BAUM;Natur;p;1;11;31;0;p;1;0.5156695999999101;002;NSIW98;2019_Dec_06_1301;iat_vr;59.9166559315576;
7;GUT;positiv;p;1;12;32;19;p;1;0.46578349999981583;002;NSIW98;2019_Dec_06_1301;iat_vr;59.9166559315576;
7;SCHWACH;negativ;q;1;13;33;14;q;1;0.5487199999997756;002;NSIW98;2019_Dec_06_1301;iat_vr;59.9166559315576;
7;SCHÄDLICH;negativ;q;1;14;34;13;q;1;0.512968600000022;002;NSIW98;2019_Dec_06_1301;iat_vr;59.9166559315576;
7;POSITIV;positiv;p;1;15;35;18;p;1;0.512966900000265;002;NSIW98;2019_Dec_06_1301;iat_vr;59.9166559315576;
7;STEIN;Natur;p;1;16;36;4;p;1;0.5983611999999994;002;NSIW98;2019_Dec_06_1301;iat_vr;59.9166559315576;
7;STADT;Gemacht;q;1;17;37;6;q;1;1.093384799999967;002;NSIW98;2019_Dec_06_1301;iat_vr;59.9166559315576;
7;SCHLIMM;negativ;q;1;18;38;10;q;1;0.913159799999903;002;NSIW98;2019_Dec_06_1301;iat_vr;59.9166559315576;
7;SCHLECHT;negativ;q;1;19;39;11;q;1;0.4429150999999365;002;NSIW98;2019_Dec_06_1301;iat_vr;59.9166559315576;
;;;;;;;;;;;002;NSIW98;2019_Dec_06_1301;iat_vr;59.9166559315576;
