Block;Word;Category;CorrResp;trials.thisRepN;trials.thisTrialN;trials.thisN;trials.thisIndex;key_resp_2.keys;key_resp_2.corr;key_resp_2.rt;session;participant;date;expName;frameRate;
1;WASSER;Natur;q;0;0;0;1;q;1;1.894511099999363;002;NSKS95;2019_Dec_05_1820;iat_vr;59.41777708601126;
1;KLEIDER;Gemacht;p;0;1;1;7;p;1;0.8406168000001344;002;NSKS95;2019_Dec_05_1820;iat_vr;59.41777708601126;
1;BLUME;Natur;q;0;2;2;2;q;1;1.0402943000008236;002;NSKS95;2019_Dec_05_1820;iat_vr;59.41777708601126;
1;TIER;Natur;q;0;3;3;3;q;1;1.0363691999991715;002;NSKS95;2019_Dec_05_1820;iat_vr;59.41777708601126;
1;GEBÄUDE;Gemacht;p;0;4;4;5;p;1;0.6718455000009271;002;NSKS95;2019_Dec_05_1820;iat_vr;59.41777708601126;
1;STEIN;Natur;q;0;5;5;4;q;1;0.8435800000006566;002;NSKS95;2019_Dec_05_1820;iat_vr;59.41777708601126;
1;BAUM;Natur;q;0;6;6;0;q;1;0.7154178999990108;002;NSKS95;2019_Dec_05_1820;iat_vr;59.41777708601126;
1;COMPUTER;Gemacht;p;0;7;7;8;p;1;0.737528999998176;002;NSKS95;2019_Dec_05_1820;iat_vr;59.41777708601126;
1;STADT;Gemacht;p;0;8;8;6;p;1;0.9479204000017489;002;NSKS95;2019_Dec_05_1820;iat_vr;59.41777708601126;
1;LAMPE;Gemacht;p;0;9;9;9;p;1;1.0488006999985373;002;NSKS95;2019_Dec_05_1820;iat_vr;59.41777708601126;
1;COMPUTER;Gemacht;p;1;0;10;8;p;1;0.7805466999998316;002;NSKS95;2019_Dec_05_1820;iat_vr;59.41777708601126;
1;KLEIDER;Gemacht;p;1;1;11;7;p;1;0.8639743999992788;002;NSKS95;2019_Dec_05_1820;iat_vr;59.41777708601126;
1;BLUME;Natur;q;1;2;12;2;q;1;1.0643859999981942;002;NSKS95;2019_Dec_05_1820;iat_vr;59.41777708601126;
1;TIER;Natur;q;1;3;13;3;q;1;0.9151732999998785;002;NSKS95;2019_Dec_05_1820;iat_vr;59.41777708601126;
1;LAMPE;Gemacht;p;1;4;14;9;p;1;1.031601300001057;002;NSKS95;2019_Dec_05_1820;iat_vr;59.41777708601126;
1;WASSER;Natur;q;1;5;15;1;q;1;1.3809123000028194;002;NSKS95;2019_Dec_05_1820;iat_vr;59.41777708601126;
1;STEIN;Natur;q;1;6;16;4;q;1;1.6798941000015475;002;NSKS95;2019_Dec_05_1820;iat_vr;59.41777708601126;
1;BAUM;Natur;q;1;7;17;0;q;1;0.7485044999993988;002;NSKS95;2019_Dec_05_1820;iat_vr;59.41777708601126;
1;STADT;Gemacht;p;1;8;18;6;p;1;0.9478204999977606;002;NSKS95;2019_Dec_05_1820;iat_vr;59.41777708601126;
1;GEBÄUDE;Gemacht;p;1;9;19;5;p;1;0.7792340999985754;002;NSKS95;2019_Dec_05_1820;iat_vr;59.41777708601126;
;;;;;;;;;;;002;NSKS95;2019_Dec_05_1820;iat_vr;59.41777708601126;
2;EINWANDFREI;positiv;p;0;0;0;6;p;1;0.906799399999727;002;NSKS95;2019_Dec_05_1820;iat_vr;59.41777708601126;
2;SCHLIMM;negativ;q;0;1;1;0;q;1;0.6922340999990411;002;NSKS95;2019_Dec_05_1820;iat_vr;59.41777708601126;
2;HERVORRAGEND;positiv;p;0;2;2;7;p;1;0.7753115999985312;002;NSKS95;2019_Dec_05_1820;iat_vr;59.41777708601126;
2;SCHLECHT;negativ;q;0;3;3;1;q;1;0.7965743000022485;002;NSKS95;2019_Dec_05_1820;iat_vr;59.41777708601126;
2;SCHWACH;negativ;q;0;4;4;4;q;1;0.6307168000021193;002;NSKS95;2019_Dec_05_1820;iat_vr;59.41777708601126;
2;AUSGEZEICHNET;positiv;p;0;5;5;5;p;1;0.6892102999991039;002;NSKS95;2019_Dec_05_1820;iat_vr;59.41777708601126;
2;POSITIV;positiv;p;0;6;6;8;p;1;0.9277929000018048;002;NSKS95;2019_Dec_05_1820;iat_vr;59.41777708601126;
2;NEGATIV;negativ;q;0;7;7;2;q;1;0.6792490000007092;002;NSKS95;2019_Dec_05_1820;iat_vr;59.41777708601126;
2;GUT;positiv;p;0;8;8;9;p;1;0.8959326000003784;002;NSKS95;2019_Dec_05_1820;iat_vr;59.41777708601126;
2;SCHÄDLICH;negativ;q;0;9;9;3;q;1;0.7943818000021565;002;NSKS95;2019_Dec_05_1820;iat_vr;59.41777708601126;
2;AUSGEZEICHNET;positiv;p;1;0;10;5;p;1;0.8508719999990717;002;NSKS95;2019_Dec_05_1820;iat_vr;59.41777708601126;
2;SCHÄDLICH;negativ;q;1;1;11;3;q;1;0.9459682000015164;002;NSKS95;2019_Dec_05_1820;iat_vr;59.41777708601126;
2;POSITIV;positiv;p;1;2;12;8;p;1;0.7803811999983736;002;NSKS95;2019_Dec_05_1820;iat_vr;59.41777708601126;
2;SCHWACH;negativ;q;1;3;13;4;q;1;1.1810409999998228;002;NSKS95;2019_Dec_05_1820;iat_vr;59.41777708601126;
2;GUT;positiv;p;1;4;14;9;p;1;0.7142132000008132;002;NSKS95;2019_Dec_05_1820;iat_vr;59.41777708601126;
2;NEGATIV;negativ;q;1;5;15;2;q;1;0.6767888000031235;002;NSKS95;2019_Dec_05_1820;iat_vr;59.41777708601126;
2;EINWANDFREI;positiv;p;1;6;16;6;p;1;1.0280096999995294;002;NSKS95;2019_Dec_05_1820;iat_vr;59.41777708601126;
2;HERVORRAGEND;positiv;p;1;7;17;7;p;1;0.6279966000001878;002;NSKS95;2019_Dec_05_1820;iat_vr;59.41777708601126;
2;SCHLIMM;negativ;q;1;8;18;0;q;1;0.7640763999988849;002;NSKS95;2019_Dec_05_1820;iat_vr;59.41777708601126;
2;SCHLECHT;negativ;q;1;9;19;1;q;1;0.618701700001111;002;NSKS95;2019_Dec_05_1820;iat_vr;59.41777708601126;
;;;;;;;;;;;002;NSKS95;2019_Dec_05_1820;iat_vr;59.41777708601126;
3;SCHÄDLICH;negativ;q;0;0;0;3;q;1;1.5569533000016236;002;NSKS95;2019_Dec_05_1820;iat_vr;59.41777708601126;
3;AUSGEZEICHNET;positiv;p;0;1;1;5;p;1;0.8784871000025305;002;NSKS95;2019_Dec_05_1820;iat_vr;59.41777708601126;
3;SCHWACH;negativ;q;0;2;2;4;q;1;1.03051989999949;002;NSKS95;2019_Dec_05_1820;iat_vr;59.41777708601126;
3;COMPUTER;Gemacht;p;0;3;3;18;p;1;1.7814624999991793;002;NSKS95;2019_Dec_05_1820;iat_vr;59.41777708601126;
3;LAMPE;Gemacht;p;0;4;4;19;p;1;0.9311893000012788;002;NSKS95;2019_Dec_05_1820;iat_vr;59.41777708601126;
3;STADT;Gemacht;p;0;5;5;16;p;1;0.7300682999994024;002;NSKS95;2019_Dec_05_1820;iat_vr;59.41777708601126;
3;KLEIDER;Gemacht;p;0;6;6;17;p;1;0.9627493000007235;002;NSKS95;2019_Dec_05_1820;iat_vr;59.41777708601126;
3;BLUME;Natur;q;0;7;7;12;q;1;1.114781000000221;002;NSKS95;2019_Dec_05_1820;iat_vr;59.41777708601126;
3;SCHLIMM;negativ;q;0;8;8;0;q;1;1.113360700001067;002;NSKS95;2019_Dec_05_1820;iat_vr;59.41777708601126;
3;GEBÄUDE;Gemacht;p;0;9;9;15;p;1;1.546110100000078;002;NSKS95;2019_Dec_05_1820;iat_vr;59.41777708601126;
3;STEIN;Natur;q;0;10;10;14;q;1;1.0818829000018013;002;NSKS95;2019_Dec_05_1820;iat_vr;59.41777708601126;
3;NEGATIV;negativ;q;0;11;11;2;q;1;0.9293073000008008;002;NSKS95;2019_Dec_05_1820;iat_vr;59.41777708601126;
3;BAUM;Natur;q;0;12;12;10;q;1;1.1657094999973197;002;NSKS95;2019_Dec_05_1820;iat_vr;59.41777708601126;
3;HERVORRAGEND;positiv;p;0;13;13;7;p;1;1.8616933000012068;002;NSKS95;2019_Dec_05_1820;iat_vr;59.41777708601126;
3;POSITIV;positiv;p;0;14;14;8;p;1;0.714656100000866;002;NSKS95;2019_Dec_05_1820;iat_vr;59.41777708601126;
3;GUT;positiv;p;0;15;15;9;p;1;0.6339542999994592;002;NSKS95;2019_Dec_05_1820;iat_vr;59.41777708601126;
3;WASSER;Natur;q;0;16;16;11;q;1;1.2301818000014464;002;NSKS95;2019_Dec_05_1820;iat_vr;59.41777708601126;
3;SCHLECHT;negativ;q;0;17;17;1;q;1;1.0691220000007888;002;NSKS95;2019_Dec_05_1820;iat_vr;59.41777708601126;
3;EINWANDFREI;positiv;p;0;18;18;6;p;1;1.0610806999975466;002;NSKS95;2019_Dec_05_1820;iat_vr;59.41777708601126;
3;TIER;Natur;q;0;19;19;13;q;1;3.165137299998605;002;NSKS95;2019_Dec_05_1820;iat_vr;59.41777708601126;
;;;;;;;;;;;002;NSKS95;2019_Dec_05_1820;iat_vr;59.41777708601126;
4;COMPUTER;Gemacht;p;0;0;0;18;p;1;1.7622080000001006;002;NSKS95;2019_Dec_05_1820;iat_vr;59.41777708601126;
4;GUT;positiv;p;0;1;1;9;p;1;0.9484919000024092;002;NSKS95;2019_Dec_05_1820;iat_vr;59.41777708601126;
4;EINWANDFREI;positiv;p;0;2;2;6;p;1;0.7277472000023408;002;NSKS95;2019_Dec_05_1820;iat_vr;59.41777708601126;
4;WASSER;Natur;q;0;3;3;11;q;1;0.8637225000020408;002;NSKS95;2019_Dec_05_1820;iat_vr;59.41777708601126;
4;TIER;Natur;q;0;4;4;13;q;1;0.6812683999996807;002;NSKS95;2019_Dec_05_1820;iat_vr;59.41777708601126;
4;GEBÄUDE;Gemacht;p;0;5;5;15;p;1;0.7617252999989432;002;NSKS95;2019_Dec_05_1820;iat_vr;59.41777708601126;
4;STEIN;Natur;q;0;6;6;14;q;1;1.131333099998301;002;NSKS95;2019_Dec_05_1820;iat_vr;59.41777708601126;
4;POSITIV;positiv;p;0;7;7;8;p;1;0.6468487999991339;002;NSKS95;2019_Dec_05_1820;iat_vr;59.41777708601126;
4;SCHLIMM;negativ;q;0;8;8;0;q;1;0.6622430999996141;002;NSKS95;2019_Dec_05_1820;iat_vr;59.41777708601126;
4;HERVORRAGEND;positiv;p;0;9;9;7;p;1;0.7287904000004346;002;NSKS95;2019_Dec_05_1820;iat_vr;59.41777708601126;
4;SCHWACH;negativ;q;0;10;10;4;q;1;1.1618685999965237;002;NSKS95;2019_Dec_05_1820;iat_vr;59.41777708601126;
4;SCHÄDLICH;negativ;q;0;11;11;3;q;1;0.76703869999983;002;NSKS95;2019_Dec_05_1820;iat_vr;59.41777708601126;
4;KLEIDER;Gemacht;p;0;12;12;17;p;1;0.8837356000003638;002;NSKS95;2019_Dec_05_1820;iat_vr;59.41777708601126;
4;STADT;Gemacht;p;0;13;13;16;p;1;0.6527883000017027;002;NSKS95;2019_Dec_05_1820;iat_vr;59.41777708601126;
4;AUSGEZEICHNET;positiv;p;0;14;14;5;p;1;1.060920600000827;002;NSKS95;2019_Dec_05_1820;iat_vr;59.41777708601126;
4;NEGATIV;negativ;q;0;15;15;2;q;1;0.7460047999993549;002;NSKS95;2019_Dec_05_1820;iat_vr;59.41777708601126;
4;BLUME;Natur;q;0;16;16;12;q;1;1.0027797000002465;002;NSKS95;2019_Dec_05_1820;iat_vr;59.41777708601126;
4;BAUM;Natur;q;0;17;17;10;q;1;0.8655428000020038;002;NSKS95;2019_Dec_05_1820;iat_vr;59.41777708601126;
4;SCHLECHT;negativ;q;0;18;18;1;q;1;0.8136263999986113;002;NSKS95;2019_Dec_05_1820;iat_vr;59.41777708601126;
4;LAMPE;Gemacht;p;0;19;19;19;p;1;0.8817433000003803;002;NSKS95;2019_Dec_05_1820;iat_vr;59.41777708601126;
4;POSITIV;positiv;p;1;0;20;8;p;1;0.747590200000559;002;NSKS95;2019_Dec_05_1820;iat_vr;59.41777708601126;
4;BAUM;Natur;q;1;1;21;10;q;1;0.848625999999058;002;NSKS95;2019_Dec_05_1820;iat_vr;59.41777708601126;
4;NEGATIV;negativ;q;1;2;22;2;q;1;0.8636504999994941;002;NSKS95;2019_Dec_05_1820;iat_vr;59.41777708601126;
4;SCHLECHT;negativ;q;1;3;23;1;q;1;0.7635524000033911;002;NSKS95;2019_Dec_05_1820;iat_vr;59.41777708601126;
4;COMPUTER;Gemacht;p;1;4;24;18;p;1;0.7458614999995916;002;NSKS95;2019_Dec_05_1820;iat_vr;59.41777708601126;
4;GEBÄUDE;Gemacht;p;1;5;25;15;p;1;0.8142157000002044;002;NSKS95;2019_Dec_05_1820;iat_vr;59.41777708601126;
4;STEIN;Natur;q;1;6;26;14;q;1;1.030357499999809;002;NSKS95;2019_Dec_05_1820;iat_vr;59.41777708601126;
4;AUSGEZEICHNET;positiv;p;1;7;27;5;p;1;0.7442099999971106;002;NSKS95;2019_Dec_05_1820;iat_vr;59.41777708601126;
4;STADT;Gemacht;p;1;8;28;16;p;1;1.4837341999991622;002;NSKS95;2019_Dec_05_1820;iat_vr;59.41777708601126;
4;HERVORRAGEND;positiv;p;1;9;29;7;p;1;0.7294871999984025;002;NSKS95;2019_Dec_05_1820;iat_vr;59.41777708601126;
4;TIER;Natur;q;1;10;30;13;q;1;0.8323898000016925;002;NSKS95;2019_Dec_05_1820;iat_vr;59.41777708601126;
4;BLUME;Natur;q;1;11;31;12;q;1;1.1478191000023799;002;NSKS95;2019_Dec_05_1820;iat_vr;59.41777708601126;
4;EINWANDFREI;positiv;p;1;12;32;6;p;1;0.9097121999984665;002;NSKS95;2019_Dec_05_1820;iat_vr;59.41777708601126;
4;KLEIDER;Gemacht;p;1;13;33;17;p;1;1.014343300001201;002;NSKS95;2019_Dec_05_1820;iat_vr;59.41777708601126;
4;SCHLIMM;negativ;q;1;14;34;0;q;1;0.8808339000024716;002;NSKS95;2019_Dec_05_1820;iat_vr;59.41777708601126;
4;SCHWACH;negativ;q;1;15;35;4;q;1;0.7637273000000278;002;NSKS95;2019_Dec_05_1820;iat_vr;59.41777708601126;
4;WASSER;Natur;q;1;16;36;11;q;1;1.096018100000947;002;NSKS95;2019_Dec_05_1820;iat_vr;59.41777708601126;
4;SCHÄDLICH;negativ;q;1;17;37;3;q;1;0.8953419999998005;002;NSKS95;2019_Dec_05_1820;iat_vr;59.41777708601126;
4;LAMPE;Gemacht;p;1;18;38;19;p;1;0.8646182000011322;002;NSKS95;2019_Dec_05_1820;iat_vr;59.41777708601126;
4;GUT;positiv;p;1;19;39;9;p;1;0.9992329000015161;002;NSKS95;2019_Dec_05_1820;iat_vr;59.41777708601126;
;;;;;;;;;;;002;NSKS95;2019_Dec_05_1820;iat_vr;59.41777708601126;
5;BLUME;Natur;p;0;0;0;2;p;1;0.6875374000010197;002;NSKS95;2019_Dec_05_1820;iat_vr;59.41777708601126;
5;STEIN;Natur;p;0;1;1;4;p;1;0.9476895000007062;002;NSKS95;2019_Dec_05_1820;iat_vr;59.41777708601126;
5;BAUM;Natur;p;0;2;2;0;p;1;0.5988082000003487;002;NSKS95;2019_Dec_05_1820;iat_vr;59.41777708601126;
5;KLEIDER;Gemacht;q;0;3;3;7;q;1;1.497251699998742;002;NSKS95;2019_Dec_05_1820;iat_vr;59.41777708601126;
5;WASSER;Natur;p;0;4;4;1;p;1;0.7631965999971726;002;NSKS95;2019_Dec_05_1820;iat_vr;59.41777708601126;
5;GEBÄUDE;Gemacht;q;0;5;5;5;q;1;3.3627859000007447;002;NSKS95;2019_Dec_05_1820;iat_vr;59.41777708601126;
5;COMPUTER;Gemacht;q;0;6;6;8;q;1;0.6793097999980091;002;NSKS95;2019_Dec_05_1820;iat_vr;59.41777708601126;
5;TIER;Natur;p;0;7;7;3;p;1;0.6163412999994762;002;NSKS95;2019_Dec_05_1820;iat_vr;59.41777708601126;
5;STADT;Gemacht;q;0;8;8;6;q;1;1.6819279000010283;002;NSKS95;2019_Dec_05_1820;iat_vr;59.41777708601126;
5;LAMPE;Gemacht;q;0;9;9;9;q;1;0.9644780000016908;002;NSKS95;2019_Dec_05_1820;iat_vr;59.41777708601126;
5;COMPUTER;Gemacht;q;1;0;10;8;q;1;0.8017905999986397;002;NSKS95;2019_Dec_05_1820;iat_vr;59.41777708601126;
5;STADT;Gemacht;q;1;1;11;6;q;1;1.180147399998532;002;NSKS95;2019_Dec_05_1820;iat_vr;59.41777708601126;
5;STEIN;Natur;p;1;2;12;4;p;1;0.7818059000019275;002;NSKS95;2019_Dec_05_1820;iat_vr;59.41777708601126;
5;KLEIDER;Gemacht;q;1;3;13;7;q;1;0.6771952999988571;002;NSKS95;2019_Dec_05_1820;iat_vr;59.41777708601126;
5;LAMPE;Gemacht;q;1;4;14;9;q;1;1.863267699998687;002;NSKS95;2019_Dec_05_1820;iat_vr;59.41777708601126;
5;BAUM;Natur;p;1;5;15;0;p;1;0.6325278000003891;002;NSKS95;2019_Dec_05_1820;iat_vr;59.41777708601126;
5;GEBÄUDE;Gemacht;q;1;6;16;5;q;1;0.5961639999986801;002;NSKS95;2019_Dec_05_1820;iat_vr;59.41777708601126;
5;BLUME;Natur;p;1;7;17;2;p;1;0.6849578000001202;002;NSKS95;2019_Dec_05_1820;iat_vr;59.41777708601126;
5;WASSER;Natur;p;1;8;18;1;p;1;1.0469914000022982;002;NSKS95;2019_Dec_05_1820;iat_vr;59.41777708601126;
5;TIER;Natur;p;1;9;19;3;p;1;0.6808639999981096;002;NSKS95;2019_Dec_05_1820;iat_vr;59.41777708601126;
;;;;;;;;;;;002;NSKS95;2019_Dec_05_1820;iat_vr;59.41777708601126;
6;BAUM;Natur;p;0;0;0;0;p;1;1.3960807000003115;002;NSKS95;2019_Dec_05_1820;iat_vr;59.41777708601126;
6;AUSGEZEICHNET;positiv;p;0;1;1;15;p;1;0.8107756999997946;002;NSKS95;2019_Dec_05_1820;iat_vr;59.41777708601126;
6;COMPUTER;Gemacht;q;0;2;2;8;q;1;0.7134497999977611;002;NSKS95;2019_Dec_05_1820;iat_vr;59.41777708601126;
6;KLEIDER;Gemacht;q;0;3;3;7;q;1;0.6813838999987638;002;NSKS95;2019_Dec_05_1820;iat_vr;59.41777708601126;
6;SCHWACH;negativ;q;0;4;4;14;q;1;1.4355204999992566;002;NSKS95;2019_Dec_05_1820;iat_vr;59.41777708601126;
6;SCHLIMM;negativ;q;0;5;5;10;q;1;0.5460316999997303;002;NSKS95;2019_Dec_05_1820;iat_vr;59.41777708601126;
6;EINWANDFREI;positiv;p;0;6;6;16;p;1;1.0288491999999678;002;NSKS95;2019_Dec_05_1820;iat_vr;59.41777708601126;
6;GUT;positiv;p;0;7;7;19;p;1;0.6135211000000709;002;NSKS95;2019_Dec_05_1820;iat_vr;59.41777708601126;
6;STADT;Gemacht;q;0;8;8;6;q;1;1.4356302000014693;002;NSKS95;2019_Dec_05_1820;iat_vr;59.41777708601126;
6;SCHÄDLICH;negativ;q;0;9;9;13;q;1;0.5946266999999352;002;NSKS95;2019_Dec_05_1820;iat_vr;59.41777708601126;
6;WASSER;Natur;p;0;10;10;1;p;1;0.9624360000016168;002;NSKS95;2019_Dec_05_1820;iat_vr;59.41777708601126;
6;LAMPE;Gemacht;q;0;11;11;9;q;1;0.763989600000059;002;NSKS95;2019_Dec_05_1820;iat_vr;59.41777708601126;
6;BLUME;Natur;p;0;12;12;2;p;1;1.1003649000012956;002;NSKS95;2019_Dec_05_1820;iat_vr;59.41777708601126;
6;STEIN;Natur;p;0;13;13;4;q;0;1.0805895000012242;002;NSKS95;2019_Dec_05_1820;iat_vr;59.41777708601126;
6;SCHLECHT;negativ;q;0;14;14;11;q;1;0.797171400001389;002;NSKS95;2019_Dec_05_1820;iat_vr;59.41777708601126;
6;GEBÄUDE;Gemacht;q;0;15;15;5;q;1;1.0502477000009094;002;NSKS95;2019_Dec_05_1820;iat_vr;59.41777708601126;
6;NEGATIV;negativ;q;0;16;16;12;q;1;0.6301905000000261;002;NSKS95;2019_Dec_05_1820;iat_vr;59.41777708601126;
6;POSITIV;positiv;p;0;17;17;18;p;1;0.6308149999968009;002;NSKS95;2019_Dec_05_1820;iat_vr;59.41777708601126;
6;TIER;Natur;p;0;18;18;3;p;1;1.350882200000342;002;NSKS95;2019_Dec_05_1820;iat_vr;59.41777708601126;
6;HERVORRAGEND;positiv;p;0;19;19;17;p;1;0.6289082000002963;002;NSKS95;2019_Dec_05_1820;iat_vr;59.41777708601126;
;;;;;;;;;;;002;NSKS95;2019_Dec_05_1820;iat_vr;59.41777708601126;
7;SCHLECHT;negativ;q;0;0;0;11;q;1;0.9790192999971623;002;NSKS95;2019_Dec_05_1820;iat_vr;59.41777708601126;
7;LAMPE;Gemacht;q;0;1;1;9;q;1;1.10344669999904;002;NSKS95;2019_Dec_05_1820;iat_vr;59.41777708601126;
7;GUT;positiv;p;0;2;2;19;p;1;0.6331322999976692;002;NSKS95;2019_Dec_05_1820;iat_vr;59.41777708601126;
7;POSITIV;positiv;p;0;3;3;18;p;1;0.5674189999990631;002;NSKS95;2019_Dec_05_1820;iat_vr;59.41777708601126;
7;AUSGEZEICHNET;positiv;p;0;4;4;15;p;1;0.5608777000015834;002;NSKS95;2019_Dec_05_1820;iat_vr;59.41777708601126;
7;WASSER;Natur;p;0;5;5;1;p;1;0.5291613999979745;002;NSKS95;2019_Dec_05_1820;iat_vr;59.41777708601126;
7;COMPUTER;Gemacht;q;0;6;6;8;q;1;0.5669591000005312;002;NSKS95;2019_Dec_05_1820;iat_vr;59.41777708601126;
7;SCHLIMM;negativ;q;0;7;7;10;q;1;0.5968739999989339;002;NSKS95;2019_Dec_05_1820;iat_vr;59.41777708601126;
7;KLEIDER;Gemacht;q;0;8;8;7;q;1;1.8298033999999461;002;NSKS95;2019_Dec_05_1820;iat_vr;59.41777708601126;
7;STEIN;Natur;p;0;9;9;4;p;1;1.098405400000047;002;NSKS95;2019_Dec_05_1820;iat_vr;59.41777708601126;
7;SCHÄDLICH;negativ;q;0;10;10;13;q;1;0.7133771000007982;002;NSKS95;2019_Dec_05_1820;iat_vr;59.41777708601126;
7;HERVORRAGEND;positiv;p;0;11;11;17;p;1;0.686105699998734;002;NSKS95;2019_Dec_05_1820;iat_vr;59.41777708601126;
7;NEGATIV;negativ;q;0;12;12;12;q;1;0.6300918000015372;002;NSKS95;2019_Dec_05_1820;iat_vr;59.41777708601126;
7;TIER;Natur;p;0;13;13;3;p;1;0.6324408000000403;002;NSKS95;2019_Dec_05_1820;iat_vr;59.41777708601126;
7;BAUM;Natur;p;0;14;14;0;p;1;0.6324802999988606;002;NSKS95;2019_Dec_05_1820;iat_vr;59.41777708601126;
7;GEBÄUDE;Gemacht;q;0;15;15;5;q;1;0.7189895000010438;002;NSKS95;2019_Dec_05_1820;iat_vr;59.41777708601126;
7;SCHWACH;negativ;q;0;16;16;14;q;1;0.5309187999991991;002;NSKS95;2019_Dec_05_1820;iat_vr;59.41777708601126;
7;BLUME;Natur;p;0;17;17;2;p;1;0.6985576999977638;002;NSKS95;2019_Dec_05_1820;iat_vr;59.41777708601126;
7;STADT;Gemacht;q;0;18;18;6;q;1;0.6637649000003876;002;NSKS95;2019_Dec_05_1820;iat_vr;59.41777708601126;
7;EINWANDFREI;positiv;p;0;19;19;16;p;1;0.6875589999981457;002;NSKS95;2019_Dec_05_1820;iat_vr;59.41777708601126;
7;NEGATIV;negativ;q;1;0;20;12;q;1;0.6149899999982154;002;NSKS95;2019_Dec_05_1820;iat_vr;59.41777708601126;
7;GUT;positiv;p;1;1;21;19;p;1;0.6134509000003163;002;NSKS95;2019_Dec_05_1820;iat_vr;59.41777708601126;
7;LAMPE;Gemacht;q;1;2;22;9;q;1;0.6653406000004907;002;NSKS95;2019_Dec_05_1820;iat_vr;59.41777708601126;
7;GEBÄUDE;Gemacht;q;1;3;23;5;q;1;0.7778208000017912;002;NSKS95;2019_Dec_05_1820;iat_vr;59.41777708601126;
7;SCHÄDLICH;negativ;q;1;4;24;13;q;1;0.6263601999999082;002;NSKS95;2019_Dec_05_1820;iat_vr;59.41777708601126;
7;WASSER;Natur;p;1;5;25;1;p;1;0.5968348999995214;002;NSKS95;2019_Dec_05_1820;iat_vr;59.41777708601126;
7;STADT;Gemacht;q;1;6;26;6;q;1;0.582248000002437;002;NSKS95;2019_Dec_05_1820;iat_vr;59.41777708601126;
7;POSITIV;positiv;p;1;7;27;18;p;1;0.548212899997452;002;NSKS95;2019_Dec_05_1820;iat_vr;59.41777708601126;
7;SCHWACH;negativ;q;1;8;28;14;q;1;0.5932850999997754;002;NSKS95;2019_Dec_05_1820;iat_vr;59.41777708601126;
7;BLUME;Natur;p;1;9;29;2;p;1;0.648509999999078;002;NSKS95;2019_Dec_05_1820;iat_vr;59.41777708601126;
7;SCHLIMM;negativ;q;1;10;30;10;q;1;0.5847443000020576;002;NSKS95;2019_Dec_05_1820;iat_vr;59.41777708601126;
7;COMPUTER;Gemacht;q;1;11;31;8;q;1;0.6272419000015361;002;NSKS95;2019_Dec_05_1820;iat_vr;59.41777708601126;
7;HERVORRAGEND;positiv;p;1;12;32;17;p;1;0.7791024999969522;002;NSKS95;2019_Dec_05_1820;iat_vr;59.41777708601126;
7;KLEIDER;Gemacht;q;1;13;33;7;q;1;0.6150218000002496;002;NSKS95;2019_Dec_05_1820;iat_vr;59.41777708601126;
7;SCHLECHT;negativ;q;1;14;34;11;q;1;0.5424955999988015;002;NSKS95;2019_Dec_05_1820;iat_vr;59.41777708601126;
7;AUSGEZEICHNET;positiv;p;1;15;35;15;p;1;0.6920877000011387;002;NSKS95;2019_Dec_05_1820;iat_vr;59.41777708601126;
7;STEIN;Natur;p;1;16;36;4;q;0;0.8149959000002127;002;NSKS95;2019_Dec_05_1820;iat_vr;59.41777708601126;
7;EINWANDFREI;positiv;p;1;17;37;16;p;1;0.9953128999986802;002;NSKS95;2019_Dec_05_1820;iat_vr;59.41777708601126;
7;TIER;Natur;p;1;18;38;3;p;1;0.7153109999999288;002;NSKS95;2019_Dec_05_1820;iat_vr;59.41777708601126;
7;BAUM;Natur;p;1;19;39;0;p;1;0.7303170999985014;002;NSKS95;2019_Dec_05_1820;iat_vr;59.41777708601126;
;;;;;;;;;;;002;NSKS95;2019_Dec_05_1820;iat_vr;59.41777708601126;
