Block;Word;Category;CorrResp;trials.thisRepN;trials.thisTrialN;trials.thisN;trials.thisIndex;key_resp_2.keys;key_resp_2.corr;key_resp_2.rt;session;participant;date;expName;frameRate;
1;BLUME;Natur;q;0;0;0;2;q;1;2.6056083000003127;001;NSLK97;2019_Dec_05_1509;iat_vr;60.50865999921176;
1;TIER;Natur;q;0;1;1;3;q;1;3.0379933999993227;001;NSLK97;2019_Dec_05_1509;iat_vr;60.50865999921176;
1;LAMPE;Gemacht;p;0;2;2;9;p;1;1.2167603999987477;001;NSLK97;2019_Dec_05_1509;iat_vr;60.50865999921176;
1;GEBÄUDE;Gemacht;p;0;3;3;5;p;1;1.6843303999994532;001;NSLK97;2019_Dec_05_1509;iat_vr;60.50865999921176;
1;KLEIDER;Gemacht;p;0;4;4;7;p;1;3.176421500000288;001;NSLK97;2019_Dec_05_1509;iat_vr;60.50865999921176;
1;COMPUTER;Gemacht;p;0;5;5;8;p;1;1.1852999000002455;001;NSLK97;2019_Dec_05_1509;iat_vr;60.50865999921176;
1;BAUM;Natur;q;0;6;6;0;q;1;0.7821530000001076;001;NSLK97;2019_Dec_05_1509;iat_vr;60.50865999921176;
1;STEIN;Natur;q;0;7;7;4;q;1;0.9079005000003235;001;NSLK97;2019_Dec_05_1509;iat_vr;60.50865999921176;
1;STADT;Gemacht;p;0;8;8;6;p;1;1.946582300000955;001;NSLK97;2019_Dec_05_1509;iat_vr;60.50865999921176;
1;WASSER;Natur;q;0;9;9;1;q;1;0.9097051000007923;001;NSLK97;2019_Dec_05_1509;iat_vr;60.50865999921176;
1;KLEIDER;Gemacht;p;1;0;10;7;p;1;0.8836228000000119;001;NSLK97;2019_Dec_05_1509;iat_vr;60.50865999921176;
1;WASSER;Natur;q;1;1;11;1;q;1;0.7528193999987707;001;NSLK97;2019_Dec_05_1509;iat_vr;60.50865999921176;
1;GEBÄUDE;Gemacht;p;1;2;12;5;p;1;1.2342444000005344;001;NSLK97;2019_Dec_05_1509;iat_vr;60.50865999921176;
1;BLUME;Natur;q;1;3;13;2;q;1;1.0130071000003227;001;NSLK97;2019_Dec_05_1509;iat_vr;60.50865999921176;
1;STADT;Gemacht;p;1;4;14;6;p;1;1.2979541000004247;001;NSLK97;2019_Dec_05_1509;iat_vr;60.50865999921176;
1;COMPUTER;Gemacht;p;1;5;15;8;p;1;0.8465813000002527;001;NSLK97;2019_Dec_05_1509;iat_vr;60.50865999921176;
1;LAMPE;Gemacht;p;1;6;16;9;p;1;0.6979992000015045;001;NSLK97;2019_Dec_05_1509;iat_vr;60.50865999921176;
1;TIER;Natur;q;1;7;17;3;q;1;0.6489386999983253;001;NSLK97;2019_Dec_05_1509;iat_vr;60.50865999921176;
1;STEIN;Natur;q;1;8;18;4;q;1;0.6690689000006387;001;NSLK97;2019_Dec_05_1509;iat_vr;60.50865999921176;
1;BAUM;Natur;q;1;9;19;0;q;1;1.2984856000002765;001;NSLK97;2019_Dec_05_1509;iat_vr;60.50865999921176;
;;;;;;;;;;;001;NSLK97;2019_Dec_05_1509;iat_vr;60.50865999921176;
2;SCHLIMM;negativ;q;0;0;0;0;q;1;0.8639394999991055;001;NSLK97;2019_Dec_05_1509;iat_vr;60.50865999921176;
2;POSITIV;positiv;p;0;1;1;8;p;1;0.7413820999991003;001;NSLK97;2019_Dec_05_1509;iat_vr;60.50865999921176;
2;SCHLECHT;negativ;q;0;2;2;1;q;1;0.6955354000001535;001;NSLK97;2019_Dec_05_1509;iat_vr;60.50865999921176;
2;EINWANDFREI;positiv;p;0;3;3;6;p;1;1.6405779999986407;001;NSLK97;2019_Dec_05_1509;iat_vr;60.50865999921176;
2;AUSGEZEICHNET;positiv;p;0;4;4;5;p;1;0.6356494000010571;001;NSLK97;2019_Dec_05_1509;iat_vr;60.50865999921176;
2;GUT;positiv;p;0;5;5;9;p;1;0.566783199999918;001;NSLK97;2019_Dec_05_1509;iat_vr;60.50865999921176;
2;NEGATIV;negativ;q;0;6;6;2;q;1;0.5261955999994825;001;NSLK97;2019_Dec_05_1509;iat_vr;60.50865999921176;
2;HERVORRAGEND;positiv;p;0;7;7;7;p;1;0.758342499999344;001;NSLK97;2019_Dec_05_1509;iat_vr;60.50865999921176;
2;SCHÄDLICH;negativ;q;0;8;8;3;q;1;0.6684877000006963;001;NSLK97;2019_Dec_05_1509;iat_vr;60.50865999921176;
2;SCHWACH;negativ;q;0;9;9;4;q;1;0.5313754999988305;001;NSLK97;2019_Dec_05_1509;iat_vr;60.50865999921176;
2;SCHWACH;negativ;q;1;0;10;4;q;1;0.6832475999999588;001;NSLK97;2019_Dec_05_1509;iat_vr;60.50865999921176;
2;AUSGEZEICHNET;positiv;p;1;1;11;5;p;1;0.6017795000007027;001;NSLK97;2019_Dec_05_1509;iat_vr;60.50865999921176;
2;GUT;positiv;p;1;2;12;9;p;1;1.6489084000004368;001;NSLK97;2019_Dec_05_1509;iat_vr;60.50865999921176;
2;EINWANDFREI;positiv;p;1;3;13;6;p;1;0.6257948000002216;001;NSLK97;2019_Dec_05_1509;iat_vr;60.50865999921176;
2;POSITIV;positiv;p;1;4;14;8;p;1;0.6116185999999288;001;NSLK97;2019_Dec_05_1509;iat_vr;60.50865999921176;
2;SCHLECHT;negativ;q;1;5;15;1;q;1;0.4811925000012707;001;NSLK97;2019_Dec_05_1509;iat_vr;60.50865999921176;
2;SCHÄDLICH;negativ;q;1;6;16;3;q;1;0.5633418999987043;001;NSLK97;2019_Dec_05_1509;iat_vr;60.50865999921176;
2;SCHLIMM;negativ;q;1;7;17;0;q;1;0.5187220000007073;001;NSLK97;2019_Dec_05_1509;iat_vr;60.50865999921176;
2;NEGATIV;negativ;q;1;8;18;2;q;1;0.7794328999989375;001;NSLK97;2019_Dec_05_1509;iat_vr;60.50865999921176;
2;HERVORRAGEND;positiv;p;1;9;19;7;p;1;0.7605041999995592;001;NSLK97;2019_Dec_05_1509;iat_vr;60.50865999921176;
;;;;;;;;;;;001;NSLK97;2019_Dec_05_1509;iat_vr;60.50865999921176;
3;NEGATIV;negativ;q;0;0;0;2;q;1;2.0510877999986405;001;NSLK97;2019_Dec_05_1509;iat_vr;60.50865999921176;
3;TIER;Natur;q;0;1;1;13;q;1;2.998550599999362;001;NSLK97;2019_Dec_05_1509;iat_vr;60.50865999921176;
3;HERVORRAGEND;positiv;p;0;2;2;7;p;1;0.9996725000000879;001;NSLK97;2019_Dec_05_1509;iat_vr;60.50865999921176;
3;SCHLECHT;negativ;q;0;3;3;1;q;1;1.0303136000002269;001;NSLK97;2019_Dec_05_1509;iat_vr;60.50865999921176;
3;SCHLIMM;negativ;q;0;4;4;0;q;1;0.7768914000007499;001;NSLK97;2019_Dec_05_1509;iat_vr;60.50865999921176;
3;EINWANDFREI;positiv;p;0;5;5;6;p;1;1.015787000000273;001;NSLK97;2019_Dec_05_1509;iat_vr;60.50865999921176;
3;SCHÄDLICH;negativ;q;0;6;6;3;q;1;1.2621665999995457;001;NSLK97;2019_Dec_05_1509;iat_vr;60.50865999921176;
3;BAUM;Natur;q;0;7;7;10;q;1;0.9151053999994474;001;NSLK97;2019_Dec_05_1509;iat_vr;60.50865999921176;
3;AUSGEZEICHNET;positiv;p;0;8;8;5;p;1;1.1433782999993127;001;NSLK97;2019_Dec_05_1509;iat_vr;60.50865999921176;
3;LAMPE;Gemacht;p;0;9;9;19;p;1;0.6968918000002304;001;NSLK97;2019_Dec_05_1509;iat_vr;60.50865999921176;
3;GUT;positiv;p;0;10;10;9;q;0;0.8807609999985289;001;NSLK97;2019_Dec_05_1509;iat_vr;60.50865999921176;
3;KLEIDER;Gemacht;p;0;11;11;17;p;1;2.063930000000255;001;NSLK97;2019_Dec_05_1509;iat_vr;60.50865999921176;
3;BLUME;Natur;q;0;12;12;12;q;1;1.2495704000011756;001;NSLK97;2019_Dec_05_1509;iat_vr;60.50865999921176;
3;STEIN;Natur;q;0;13;13;14;q;1;1.3500089999997726;001;NSLK97;2019_Dec_05_1509;iat_vr;60.50865999921176;
3;COMPUTER;Gemacht;p;0;14;14;18;p;1;0.7452479000003223;001;NSLK97;2019_Dec_05_1509;iat_vr;60.50865999921176;
3;GEBÄUDE;Gemacht;p;0;15;15;15;p;1;0.6501970000008441;001;NSLK97;2019_Dec_05_1509;iat_vr;60.50865999921176;
3;POSITIV;positiv;p;0;16;16;8;p;1;0.8487854000013613;001;NSLK97;2019_Dec_05_1509;iat_vr;60.50865999921176;
3;STADT;Gemacht;p;0;17;17;16;p;1;0.7648955999993632;001;NSLK97;2019_Dec_05_1509;iat_vr;60.50865999921176;
3;WASSER;Natur;q;0;18;18;11;q;1;0.5306753999993816;001;NSLK97;2019_Dec_05_1509;iat_vr;60.50865999921176;
3;SCHWACH;negativ;q;0;19;19;4;q;1;0.9786055000004126;001;NSLK97;2019_Dec_05_1509;iat_vr;60.50865999921176;
;;;;;;;;;;;001;NSLK97;2019_Dec_05_1509;iat_vr;60.50865999921176;
4;STADT;Gemacht;p;0;0;0;16;p;1;1.399151300000085;001;NSLK97;2019_Dec_05_1509;iat_vr;60.50865999921176;
4;GEBÄUDE;Gemacht;p;0;1;1;15;p;1;0.7023286000003282;001;NSLK97;2019_Dec_05_1509;iat_vr;60.50865999921176;
4;TIER;Natur;q;0;2;2;13;q;1;0.9475942999997642;001;NSLK97;2019_Dec_05_1509;iat_vr;60.50865999921176;
4;SCHÄDLICH;negativ;q;0;3;3;3;q;1;0.7617936999995436;001;NSLK97;2019_Dec_05_1509;iat_vr;60.50865999921176;
4;SCHLIMM;negativ;q;0;4;4;0;q;1;0.5818560000006983;001;NSLK97;2019_Dec_05_1509;iat_vr;60.50865999921176;
4;BLUME;Natur;q;0;5;5;12;p;0;0.7115783000008378;001;NSLK97;2019_Dec_05_1509;iat_vr;60.50865999921176;
4;WASSER;Natur;q;0;6;6;11;q;1;0.8338058000008459;001;NSLK97;2019_Dec_05_1509;iat_vr;60.50865999921176;
4;SCHWACH;negativ;q;0;7;7;4;q;1;2.0997521999997844;001;NSLK97;2019_Dec_05_1509;iat_vr;60.50865999921176;
4;LAMPE;Gemacht;p;0;8;8;19;p;1;0.7003222999992431;001;NSLK97;2019_Dec_05_1509;iat_vr;60.50865999921176;
4;NEGATIV;negativ;q;0;9;9;2;q;1;1.0132599999997183;001;NSLK97;2019_Dec_05_1509;iat_vr;60.50865999921176;
4;AUSGEZEICHNET;positiv;p;0;10;10;5;p;1;1.5434844999999768;001;NSLK97;2019_Dec_05_1509;iat_vr;60.50865999921176;
4;EINWANDFREI;positiv;p;0;11;11;6;p;1;0.6589870999996492;001;NSLK97;2019_Dec_05_1509;iat_vr;60.50865999921176;
4;HERVORRAGEND;positiv;p;0;12;12;7;p;1;0.5613177999985055;001;NSLK97;2019_Dec_05_1509;iat_vr;60.50865999921176;
4;SCHLECHT;negativ;q;0;13;13;1;q;1;0.5790276999996422;001;NSLK97;2019_Dec_05_1509;iat_vr;60.50865999921176;
4;COMPUTER;Gemacht;p;0;14;14;18;p;1;0.6287930999988021;001;NSLK97;2019_Dec_05_1509;iat_vr;60.50865999921176;
4;GUT;positiv;p;0;15;15;9;p;1;0.9488326999999117;001;NSLK97;2019_Dec_05_1509;iat_vr;60.50865999921176;
4;KLEIDER;Gemacht;p;0;16;16;17;p;1;0.7620171999988088;001;NSLK97;2019_Dec_05_1509;iat_vr;60.50865999921176;
4;STEIN;Natur;q;0;17;17;14;q;1;0.6328223000000435;001;NSLK97;2019_Dec_05_1509;iat_vr;60.50865999921176;
4;BAUM;Natur;q;0;18;18;10;q;1;0.582068600000639;001;NSLK97;2019_Dec_05_1509;iat_vr;60.50865999921176;
4;POSITIV;positiv;p;0;19;19;8;p;1;1.8983711000000767;001;NSLK97;2019_Dec_05_1509;iat_vr;60.50865999921176;
4;WASSER;Natur;q;1;0;20;11;q;1;0.6480801999987307;001;NSLK97;2019_Dec_05_1509;iat_vr;60.50865999921176;
4;COMPUTER;Gemacht;p;1;1;21;18;p;1;0.6644853000016155;001;NSLK97;2019_Dec_05_1509;iat_vr;60.50865999921176;
4;NEGATIV;negativ;q;1;2;22;2;q;1;0.943745200000194;001;NSLK97;2019_Dec_05_1509;iat_vr;60.50865999921176;
4;KLEIDER;Gemacht;p;1;3;23;17;p;1;0.8261934000001929;001;NSLK97;2019_Dec_05_1509;iat_vr;60.50865999921176;
4;STEIN;Natur;q;1;4;24;14;q;1;0.7189235000005283;001;NSLK97;2019_Dec_05_1509;iat_vr;60.50865999921176;
4;TIER;Natur;q;1;5;25;13;q;1;1.0980522999998357;001;NSLK97;2019_Dec_05_1509;iat_vr;60.50865999921176;
4;STADT;Gemacht;p;1;6;26;16;p;1;0.6985333000011451;001;NSLK97;2019_Dec_05_1509;iat_vr;60.50865999921176;
4;HERVORRAGEND;positiv;p;1;7;27;7;p;1;0.7597109999987879;001;NSLK97;2019_Dec_05_1509;iat_vr;60.50865999921176;
4;BLUME;Natur;q;1;8;28;12;q;1;1.1679456000001665;001;NSLK97;2019_Dec_05_1509;iat_vr;60.50865999921176;
4;SCHÄDLICH;negativ;q;1;9;29;3;q;1;0.8123506000010821;001;NSLK97;2019_Dec_05_1509;iat_vr;60.50865999921176;
4;BAUM;Natur;q;1;10;30;10;q;1;0.6644890999996278;001;NSLK97;2019_Dec_05_1509;iat_vr;60.50865999921176;
4;POSITIV;positiv;p;1;11;31;8;p;1;0.8432637000005343;001;NSLK97;2019_Dec_05_1509;iat_vr;60.50865999921176;
4;AUSGEZEICHNET;positiv;p;1;12;32;5;p;1;0.6269279000007373;001;NSLK97;2019_Dec_05_1509;iat_vr;60.50865999921176;
4;SCHLECHT;negativ;q;1;13;33;1;q;1;0.9524332000000868;001;NSLK97;2019_Dec_05_1509;iat_vr;60.50865999921176;
4;SCHLIMM;negativ;q;1;14;34;0;q;1;0.6022596000002522;001;NSLK97;2019_Dec_05_1509;iat_vr;60.50865999921176;
4;SCHWACH;negativ;q;1;15;35;4;q;1;0.5600790999997116;001;NSLK97;2019_Dec_05_1509;iat_vr;60.50865999921176;
4;EINWANDFREI;positiv;p;1;16;36;6;p;1;0.5645375000003696;001;NSLK97;2019_Dec_05_1509;iat_vr;60.50865999921176;
4;LAMPE;Gemacht;p;1;17;37;19;p;1;0.7189495999991777;001;NSLK97;2019_Dec_05_1509;iat_vr;60.50865999921176;
4;GEBÄUDE;Gemacht;p;1;18;38;15;p;1;0.6618130000006204;001;NSLK97;2019_Dec_05_1509;iat_vr;60.50865999921176;
4;GUT;positiv;p;1;19;39;9;p;1;0.8160069999994448;001;NSLK97;2019_Dec_05_1509;iat_vr;60.50865999921176;
;;;;;;;;;;;001;NSLK97;2019_Dec_05_1509;iat_vr;60.50865999921176;
5;BLUME;Natur;p;0;0;0;2;p;1;1.203322700001081;001;NSLK97;2019_Dec_05_1509;iat_vr;60.50865999921176;
5;GEBÄUDE;Gemacht;q;0;1;1;5;q;1;0.8110092000006262;001;NSLK97;2019_Dec_05_1509;iat_vr;60.50865999921176;
5;TIER;Natur;p;0;2;2;3;p;1;0.9506106999997428;001;NSLK97;2019_Dec_05_1509;iat_vr;60.50865999921176;
5;COMPUTER;Gemacht;q;0;3;3;8;q;1;0.9019896000008885;001;NSLK97;2019_Dec_05_1509;iat_vr;60.50865999921176;
5;STADT;Gemacht;q;0;4;4;6;q;1;0.7310109000009106;001;NSLK97;2019_Dec_05_1509;iat_vr;60.50865999921176;
5;LAMPE;Gemacht;q;0;5;5;9;q;1;0.8625933999992412;001;NSLK97;2019_Dec_05_1509;iat_vr;60.50865999921176;
5;KLEIDER;Gemacht;q;0;6;6;7;q;1;0.7124782000009873;001;NSLK97;2019_Dec_05_1509;iat_vr;60.50865999921176;
5;BAUM;Natur;p;0;7;7;0;p;1;0.4855341000002227;001;NSLK97;2019_Dec_05_1509;iat_vr;60.50865999921176;
5;WASSER;Natur;p;0;8;8;1;p;1;0.5306981000012456;001;NSLK97;2019_Dec_05_1509;iat_vr;60.50865999921176;
5;STEIN;Natur;p;0;9;9;4;p;1;0.5968218999987585;001;NSLK97;2019_Dec_05_1509;iat_vr;60.50865999921176;
5;KLEIDER;Gemacht;q;1;0;10;7;q;1;1.277892799998881;001;NSLK97;2019_Dec_05_1509;iat_vr;60.50865999921176;
5;STEIN;Natur;p;1;1;11;4;p;1;0.6301244000005681;001;NSLK97;2019_Dec_05_1509;iat_vr;60.50865999921176;
5;BAUM;Natur;p;1;2;12;0;p;1;0.5853060000008554;001;NSLK97;2019_Dec_05_1509;iat_vr;60.50865999921176;
5;LAMPE;Gemacht;q;1;3;13;9;q;1;0.6353715999994165;001;NSLK97;2019_Dec_05_1509;iat_vr;60.50865999921176;
5;STADT;Gemacht;q;1;4;14;6;q;1;0.6968579999993381;001;NSLK97;2019_Dec_05_1509;iat_vr;60.50865999921176;
5;GEBÄUDE;Gemacht;q;1;5;15;5;q;1;0.7287749000006443;001;NSLK97;2019_Dec_05_1509;iat_vr;60.50865999921176;
5;WASSER;Natur;p;1;6;16;1;p;1;0.8834724000007554;001;NSLK97;2019_Dec_05_1509;iat_vr;60.50865999921176;
5;COMPUTER;Gemacht;q;1;7;17;8;q;1;0.5853856999983691;001;NSLK97;2019_Dec_05_1509;iat_vr;60.50865999921176;
5;BLUME;Natur;p;1;8;18;2;p;1;0.4127972000005684;001;NSLK97;2019_Dec_05_1509;iat_vr;60.50865999921176;
5;TIER;Natur;p;1;9;19;3;p;1;0.49110640000071726;001;NSLK97;2019_Dec_05_1509;iat_vr;60.50865999921176;
;;;;;;;;;;;001;NSLK97;2019_Dec_05_1509;iat_vr;60.50865999921176;
6;STADT;Gemacht;q;0;0;0;6;q;1;2.831883900000321;001;NSLK97;2019_Dec_05_1509;iat_vr;60.50865999921176;
6;BAUM;Natur;p;0;1;1;0;p;1;0.849232700000357;001;NSLK97;2019_Dec_05_1509;iat_vr;60.50865999921176;
6;SCHLIMM;negativ;q;0;2;2;10;q;1;1.9147338000002492;001;NSLK97;2019_Dec_05_1509;iat_vr;60.50865999921176;
6;TIER;Natur;p;0;3;3;3;p;1;1.065368600000511;001;NSLK97;2019_Dec_05_1509;iat_vr;60.50865999921176;
6;NEGATIV;negativ;q;0;4;4;12;q;1;1.1400173000001814;001;NSLK97;2019_Dec_05_1509;iat_vr;60.50865999921176;
6;HERVORRAGEND;positiv;p;0;5;5;17;p;1;0.6276803000000655;001;NSLK97;2019_Dec_05_1509;iat_vr;60.50865999921176;
6;BLUME;Natur;p;0;6;6;2;p;1;2.4656568999998854;001;NSLK97;2019_Dec_05_1509;iat_vr;60.50865999921176;
6;GUT;positiv;p;0;7;7;19;p;1;1.1158923000002687;001;NSLK97;2019_Dec_05_1509;iat_vr;60.50865999921176;
6;STEIN;Natur;p;0;8;8;4;p;1;0.8190904000002774;001;NSLK97;2019_Dec_05_1509;iat_vr;60.50865999921176;
6;KLEIDER;Gemacht;q;0;9;9;7;q;1;1.547743699999046;001;NSLK97;2019_Dec_05_1509;iat_vr;60.50865999921176;
6;LAMPE;Gemacht;q;0;10;10;9;q;1;1.1984854999991512;001;NSLK97;2019_Dec_05_1509;iat_vr;60.50865999921176;
6;COMPUTER;Gemacht;q;0;11;11;8;q;1;0.8638641999987158;001;NSLK97;2019_Dec_05_1509;iat_vr;60.50865999921176;
6;SCHÄDLICH;negativ;q;0;12;12;13;q;1;3.129088800000318;001;NSLK97;2019_Dec_05_1509;iat_vr;60.50865999921176;
6;POSITIV;positiv;p;0;13;13;18;p;1;0.6643726999991486;001;NSLK97;2019_Dec_05_1509;iat_vr;60.50865999921176;
6;WASSER;Natur;p;0;14;14;1;p;1;1.4970412999991822;001;NSLK97;2019_Dec_05_1509;iat_vr;60.50865999921176;
6;SCHWACH;negativ;q;0;15;15;14;q;1;1.3621134999993956;001;NSLK97;2019_Dec_05_1509;iat_vr;60.50865999921176;
6;EINWANDFREI;positiv;p;0;16;16;16;p;1;1.4616784999998345;001;NSLK97;2019_Dec_05_1509;iat_vr;60.50865999921176;
6;GEBÄUDE;Gemacht;q;0;17;17;5;q;1;0.7688235999994504;001;NSLK97;2019_Dec_05_1509;iat_vr;60.50865999921176;
6;SCHLECHT;negativ;q;0;18;18;11;q;1;1.145655700000134;001;NSLK97;2019_Dec_05_1509;iat_vr;60.50865999921176;
6;AUSGEZEICHNET;positiv;p;0;19;19;15;p;1;1.1677739999995538;001;NSLK97;2019_Dec_05_1509;iat_vr;60.50865999921176;
;;;;;;;;;;;001;NSLK97;2019_Dec_05_1509;iat_vr;60.50865999921176;
7;SCHLIMM;negativ;q;0;0;0;10;q;1;1.1286963000002288;001;NSLK97;2019_Dec_05_1509;iat_vr;60.50865999921176;
7;SCHLECHT;negativ;q;0;1;1;11;q;1;1.5499798999990162;001;NSLK97;2019_Dec_05_1509;iat_vr;60.50865999921176;
7;BLUME;Natur;p;0;2;2;2;p;1;0.43176130000028934;001;NSLK97;2019_Dec_05_1509;iat_vr;60.50865999921176;
7;STADT;Gemacht;q;0;3;3;6;q;1;0.8286963999998989;001;NSLK97;2019_Dec_05_1509;iat_vr;60.50865999921176;
7;HERVORRAGEND;positiv;p;0;4;4;17;p;1;0.7041398000001209;001;NSLK97;2019_Dec_05_1509;iat_vr;60.50865999921176;
7;GEBÄUDE;Gemacht;q;0;5;5;5;q;1;1.1266843999983394;001;NSLK97;2019_Dec_05_1509;iat_vr;60.50865999921176;
7;LAMPE;Gemacht;q;0;6;6;9;q;1;1.4003912999996828;001;NSLK97;2019_Dec_05_1509;iat_vr;60.50865999921176;
7;SCHÄDLICH;negativ;q;0;7;7;13;q;1;0.8283870000013849;001;NSLK97;2019_Dec_05_1509;iat_vr;60.50865999921176;
7;STEIN;Natur;p;0;8;8;4;p;1;0.7975664999994478;001;NSLK97;2019_Dec_05_1509;iat_vr;60.50865999921176;
7;EINWANDFREI;positiv;p;0;9;9;16;p;1;0.9263490000012098;001;NSLK97;2019_Dec_05_1509;iat_vr;60.50865999921176;
7;COMPUTER;Gemacht;q;0;10;10;8;q;1;0.6622234000005847;001;NSLK97;2019_Dec_05_1509;iat_vr;60.50865999921176;
7;SCHWACH;negativ;q;0;11;11;14;q;1;1.084146299999702;001;NSLK97;2019_Dec_05_1509;iat_vr;60.50865999921176;
7;GUT;positiv;p;0;12;12;19;p;1;0.714934000001449;001;NSLK97;2019_Dec_05_1509;iat_vr;60.50865999921176;
7;BAUM;Natur;p;0;13;13;0;p;1;0.7856644000003143;001;NSLK97;2019_Dec_05_1509;iat_vr;60.50865999921176;
7;TIER;Natur;p;0;14;14;3;p;1;0.6282040999994933;001;NSLK97;2019_Dec_05_1509;iat_vr;60.50865999921176;
7;WASSER;Natur;p;0;15;15;1;p;1;0.6449577000003046;001;NSLK97;2019_Dec_05_1509;iat_vr;60.50865999921176;
7;POSITIV;positiv;p;0;16;16;18;p;1;0.7119246000002022;001;NSLK97;2019_Dec_05_1509;iat_vr;60.50865999921176;
7;AUSGEZEICHNET;positiv;p;0;17;17;15;p;1;0.6737137000000075;001;NSLK97;2019_Dec_05_1509;iat_vr;60.50865999921176;
7;NEGATIV;negativ;q;0;18;18;12;q;1;0.7278158999997686;001;NSLK97;2019_Dec_05_1509;iat_vr;60.50865999921176;
7;KLEIDER;Gemacht;q;0;19;19;7;q;1;0.6770845999999437;001;NSLK97;2019_Dec_05_1509;iat_vr;60.50865999921176;
7;SCHLIMM;negativ;q;1;0;20;10;q;1;0.666851999998471;001;NSLK97;2019_Dec_05_1509;iat_vr;60.50865999921176;
7;NEGATIV;negativ;q;1;1;21;12;q;1;0.8001562999997986;001;NSLK97;2019_Dec_05_1509;iat_vr;60.50865999921176;
7;SCHWACH;negativ;q;1;2;22;14;q;1;0.636047600000893;001;NSLK97;2019_Dec_05_1509;iat_vr;60.50865999921176;
7;SCHÄDLICH;negativ;q;1;3;23;13;q;1;0.6520287999992433;001;NSLK97;2019_Dec_05_1509;iat_vr;60.50865999921176;
7;BAUM;Natur;p;1;4;24;0;p;1;0.6967115999996167;001;NSLK97;2019_Dec_05_1509;iat_vr;60.50865999921176;
7;STADT;Gemacht;q;1;5;25;6;p;0;0.6668012999998609;001;NSLK97;2019_Dec_05_1509;iat_vr;60.50865999921176;
7;AUSGEZEICHNET;positiv;p;1;6;26;15;p;1;1.4123388999996678;001;NSLK97;2019_Dec_05_1509;iat_vr;60.50865999921176;
7;HERVORRAGEND;positiv;p;1;7;27;17;p;1;0.9187618999985716;001;NSLK97;2019_Dec_05_1509;iat_vr;60.50865999921176;
7;COMPUTER;Gemacht;q;1;8;28;8;q;1;0.6178099999997357;001;NSLK97;2019_Dec_05_1509;iat_vr;60.50865999921176;
7;KLEIDER;Gemacht;q;1;9;29;7;q;1;1.1957959000010305;001;NSLK97;2019_Dec_05_1509;iat_vr;60.50865999921176;
7;POSITIV;positiv;p;1;10;30;18;p;1;1.5138842000014847;001;NSLK97;2019_Dec_05_1509;iat_vr;60.50865999921176;
7;STEIN;Natur;p;1;11;31;4;p;1;0.6797408000002179;001;NSLK97;2019_Dec_05_1509;iat_vr;60.50865999921176;
7;GUT;positiv;p;1;12;32;19;p;1;0.5116730999998254;001;NSLK97;2019_Dec_05_1509;iat_vr;60.50865999921176;
7;EINWANDFREI;positiv;p;1;13;33;16;p;1;0.7184365000011894;001;NSLK97;2019_Dec_05_1509;iat_vr;60.50865999921176;
7;BLUME;Natur;p;1;14;34;2;p;1;1.129584899999827;001;NSLK97;2019_Dec_05_1509;iat_vr;60.50865999921176;
7;LAMPE;Gemacht;q;1;15;35;9;q;1;0.7317461999991792;001;NSLK97;2019_Dec_05_1509;iat_vr;60.50865999921176;
7;SCHLECHT;negativ;q;1;16;36;11;q;1;0.6455097999987629;001;NSLK97;2019_Dec_05_1509;iat_vr;60.50865999921176;
7;WASSER;Natur;p;1;17;37;1;p;1;0.7098823999986053;001;NSLK97;2019_Dec_05_1509;iat_vr;60.50865999921176;
7;GEBÄUDE;Gemacht;q;1;18;38;5;q;1;1.0467659999994794;001;NSLK97;2019_Dec_05_1509;iat_vr;60.50865999921176;
7;TIER;Natur;p;1;19;39;3;p;1;0.61337260000073;001;NSLK97;2019_Dec_05_1509;iat_vr;60.50865999921176;
;;;;;;;;;;;001;NSLK97;2019_Dec_05_1509;iat_vr;60.50865999921176;
