Block;Word;Category;CorrResp;trials.thisRepN;trials.thisTrialN;trials.thisN;trials.thisIndex;key_resp_2.keys;key_resp_2.corr;key_resp_2.rt;session;participant;date;expName;frameRate;
1;TIER;Natur;q;0;0;0;3;q;1;2.2813792000015383;001;NSMS57;2019_Dec_07_1040;iat_vr;59.86041747839583;
1;WASSER;Natur;q;0;1;1;1;q;1;1.7214011999967624;001;NSMS57;2019_Dec_07_1040;iat_vr;59.86041747839583;
1;STEIN;Natur;q;0;2;2;4;q;1;1.3725377000009757;001;NSMS57;2019_Dec_07_1040;iat_vr;59.86041747839583;
1;BLUME;Natur;q;0;3;3;2;q;1;1.1872316999942996;001;NSMS57;2019_Dec_07_1040;iat_vr;59.86041747839583;
1;LAMPE;Gemacht;p;0;4;4;9;p;1;1.9778998999972828;001;NSMS57;2019_Dec_07_1040;iat_vr;59.86041747839583;
1;BAUM;Natur;q;0;5;5;0;q;1;1.0487983000057284;001;NSMS57;2019_Dec_07_1040;iat_vr;59.86041747839583;
1;STADT;Gemacht;p;0;6;6;6;p;1;1.4948925000062445;001;NSMS57;2019_Dec_07_1040;iat_vr;59.86041747839583;
1;COMPUTER;Gemacht;p;0;7;7;8;p;1;1.073058800000581;001;NSMS57;2019_Dec_07_1040;iat_vr;59.86041747839583;
1;GEBÄUDE;Gemacht;p;0;8;8;5;p;1;0.9885453000024427;001;NSMS57;2019_Dec_07_1040;iat_vr;59.86041747839583;
1;KLEIDER;Gemacht;p;0;9;9;7;p;1;1.1266270999985863;001;NSMS57;2019_Dec_07_1040;iat_vr;59.86041747839583;
1;LAMPE;Gemacht;p;1;0;10;9;p;1;1.3308823000043049;001;NSMS57;2019_Dec_07_1040;iat_vr;59.86041747839583;
1;WASSER;Natur;q;1;1;11;1;q;1;1.0207609999997658;001;NSMS57;2019_Dec_07_1040;iat_vr;59.86041747839583;
1;STEIN;Natur;q;1;2;12;4;q;1;1.0629408000022522;001;NSMS57;2019_Dec_07_1040;iat_vr;59.86041747839583;
1;GEBÄUDE;Gemacht;p;1;3;13;5;p;1;1.0185417000029702;001;NSMS57;2019_Dec_07_1040;iat_vr;59.86041747839583;
1;KLEIDER;Gemacht;p;1;4;14;7;p;1;0.9940028999990318;001;NSMS57;2019_Dec_07_1040;iat_vr;59.86041747839583;
1;BAUM;Natur;q;1;5;15;0;q;1;1.2149347999948077;001;NSMS57;2019_Dec_07_1040;iat_vr;59.86041747839583;
1;TIER;Natur;q;1;6;16;3;q;1;1.0824101000034716;001;NSMS57;2019_Dec_07_1040;iat_vr;59.86041747839583;
1;STADT;Gemacht;p;1;7;17;6;p;1;1.0183536999975331;001;NSMS57;2019_Dec_07_1040;iat_vr;59.86041747839583;
1;COMPUTER;Gemacht;p;1;8;18;8;p;1;1.4638648999971338;001;NSMS57;2019_Dec_07_1040;iat_vr;59.86041747839583;
1;BLUME;Natur;q;1;9;19;2;q;1;1.2025056999991648;001;NSMS57;2019_Dec_07_1040;iat_vr;59.86041747839583;
;;;;;;;;;;;001;NSMS57;2019_Dec_07_1040;iat_vr;59.86041747839583;
2;SCHÄDLICH;negativ;q;0;0;0;3;q;1;2.705293900005927;001;NSMS57;2019_Dec_07_1040;iat_vr;59.86041747839583;
2;HERVORRAGEND;positiv;p;0;1;1;7;p;1;1.0400137000033283;001;NSMS57;2019_Dec_07_1040;iat_vr;59.86041747839583;
2;SCHWACH;negativ;q;0;2;2;4;q;1;1.181907100006356;001;NSMS57;2019_Dec_07_1040;iat_vr;59.86041747839583;
2;SCHLIMM;negativ;q;0;3;3;0;q;1;0.9507776000027661;001;NSMS57;2019_Dec_07_1040;iat_vr;59.86041747839583;
2;GUT;positiv;p;0;4;4;9;p;1;0.8310781000036513;001;NSMS57;2019_Dec_07_1040;iat_vr;59.86041747839583;
2;SCHLECHT;negativ;q;0;5;5;1;q;1;0.9465049999998882;001;NSMS57;2019_Dec_07_1040;iat_vr;59.86041747839583;
2;NEGATIV;negativ;q;0;6;6;2;q;1;1.864127600005304;001;NSMS57;2019_Dec_07_1040;iat_vr;59.86041747839583;
2;POSITIV;positiv;p;0;7;7;8;p;1;0.9472101999999722;001;NSMS57;2019_Dec_07_1040;iat_vr;59.86041747839583;
2;AUSGEZEICHNET;positiv;p;0;8;8;5;p;1;0.8375519999972312;001;NSMS57;2019_Dec_07_1040;iat_vr;59.86041747839583;
2;EINWANDFREI;positiv;p;0;9;9;6;p;1;0.9423940999986371;001;NSMS57;2019_Dec_07_1040;iat_vr;59.86041747839583;
2;SCHLECHT;negativ;q;1;0;10;1;q;1;0.8429389999946579;001;NSMS57;2019_Dec_07_1040;iat_vr;59.86041747839583;
2;SCHLIMM;negativ;q;1;1;11;0;q;1;0.8978570000035688;001;NSMS57;2019_Dec_07_1040;iat_vr;59.86041747839583;
2;SCHÄDLICH;negativ;q;1;2;12;3;q;1;1.2637491999994381;001;NSMS57;2019_Dec_07_1040;iat_vr;59.86041747839583;
2;EINWANDFREI;positiv;p;1;3;13;6;p;1;0.8784314000004088;001;NSMS57;2019_Dec_07_1040;iat_vr;59.86041747839583;
2;SCHWACH;negativ;q;1;4;14;4;q;1;0.8278895000039483;001;NSMS57;2019_Dec_07_1040;iat_vr;59.86041747839583;
2;NEGATIV;negativ;q;1;5;15;2;q;1;0.9482726999995066;001;NSMS57;2019_Dec_07_1040;iat_vr;59.86041747839583;
2;POSITIV;positiv;p;1;6;16;8;p;1;0.8306148999981815;001;NSMS57;2019_Dec_07_1040;iat_vr;59.86041747839583;
2;GUT;positiv;p;1;7;17;9;p;1;0.949189999999362;001;NSMS57;2019_Dec_07_1040;iat_vr;59.86041747839583;
2;HERVORRAGEND;positiv;p;1;8;18;7;p;1;0.9777968000053079;001;NSMS57;2019_Dec_07_1040;iat_vr;59.86041747839583;
2;AUSGEZEICHNET;positiv;p;1;9;19;5;p;1;0.827509499998996;001;NSMS57;2019_Dec_07_1040;iat_vr;59.86041747839583;
;;;;;;;;;;;001;NSMS57;2019_Dec_07_1040;iat_vr;59.86041747839583;
3;AUSGEZEICHNET;positiv;p;0;0;0;5;p;1;1.1924369999978808;001;NSMS57;2019_Dec_07_1040;iat_vr;59.86041747839583;
3;KLEIDER;Gemacht;p;0;1;1;17;p;1;1.1807926999972551;001;NSMS57;2019_Dec_07_1040;iat_vr;59.86041747839583;
3;EINWANDFREI;positiv;p;0;2;2;6;p;1;1.7460099999952945;001;NSMS57;2019_Dec_07_1040;iat_vr;59.86041747839583;
3;STADT;Gemacht;p;0;3;3;16;p;1;1.181463300003088;001;NSMS57;2019_Dec_07_1040;iat_vr;59.86041747839583;
3;STEIN;Natur;q;0;4;4;14;q;1;1.015091900000698;001;NSMS57;2019_Dec_07_1040;iat_vr;59.86041747839583;
3;COMPUTER;Gemacht;p;0;5;5;18;p;1;0.9132693999999901;001;NSMS57;2019_Dec_07_1040;iat_vr;59.86041747839583;
3;POSITIV;positiv;p;0;6;6;8;p;1;1.61125919999904;001;NSMS57;2019_Dec_07_1040;iat_vr;59.86041747839583;
3;BLUME;Natur;q;0;7;7;12;q;1;1.1980710999996518;001;NSMS57;2019_Dec_07_1040;iat_vr;59.86041747839583;
3;HERVORRAGEND;positiv;p;0;8;8;7;p;1;1.045702600000368;001;NSMS57;2019_Dec_07_1040;iat_vr;59.86041747839583;
3;SCHÄDLICH;negativ;q;0;9;9;3;q;1;1.695592600000964;001;NSMS57;2019_Dec_07_1040;iat_vr;59.86041747839583;
3;TIER;Natur;q;0;10;10;13;q;1;1.5810103999974672;001;NSMS57;2019_Dec_07_1040;iat_vr;59.86041747839583;
3;GUT;positiv;p;0;11;11;9;p;1;3.3309794000015245;001;NSMS57;2019_Dec_07_1040;iat_vr;59.86041747839583;
3;NEGATIV;negativ;q;0;12;12;2;q;1;2.2637051999990945;001;NSMS57;2019_Dec_07_1040;iat_vr;59.86041747839583;
3;BAUM;Natur;q;0;13;13;10;q;1;1.3185873000038555;001;NSMS57;2019_Dec_07_1040;iat_vr;59.86041747839583;
3;SCHWACH;negativ;q;0;14;14;4;q;1;1.5800484999999753;001;NSMS57;2019_Dec_07_1040;iat_vr;59.86041747839583;
3;WASSER;Natur;q;0;15;15;11;q;1;1.1322818999979063;001;NSMS57;2019_Dec_07_1040;iat_vr;59.86041747839583;
3;SCHLIMM;negativ;q;0;16;16;0;q;1;0.9807631000003312;001;NSMS57;2019_Dec_07_1040;iat_vr;59.86041747839583;
3;SCHLECHT;negativ;q;0;17;17;1;q;1;0.8790627000053064;001;NSMS57;2019_Dec_07_1040;iat_vr;59.86041747839583;
3;GEBÄUDE;Gemacht;p;0;18;18;15;p;1;2.279339799999434;001;NSMS57;2019_Dec_07_1040;iat_vr;59.86041747839583;
3;LAMPE;Gemacht;p;0;19;19;19;p;1;1.2795695000022533;001;NSMS57;2019_Dec_07_1040;iat_vr;59.86041747839583;
;;;;;;;;;;;001;NSMS57;2019_Dec_07_1040;iat_vr;59.86041747839583;
4;SCHÄDLICH;negativ;q;0;0;0;3;q;1;1.1352618999953847;001;NSMS57;2019_Dec_07_1040;iat_vr;59.86041747839583;
4;STADT;Gemacht;p;0;1;1;16;p;1;0.8812434999999823;001;NSMS57;2019_Dec_07_1040;iat_vr;59.86041747839583;
4;NEGATIV;negativ;q;0;2;2;2;q;1;1.3458469999968656;001;NSMS57;2019_Dec_07_1040;iat_vr;59.86041747839583;
4;TIER;Natur;q;0;3;3;13;q;1;1.1978301999988616;001;NSMS57;2019_Dec_07_1040;iat_vr;59.86041747839583;
4;GUT;positiv;p;0;4;4;9;p;1;0.9364378999962355;001;NSMS57;2019_Dec_07_1040;iat_vr;59.86041747839583;
4;SCHWACH;negativ;q;0;5;5;4;q;1;1.7355459999962477;001;NSMS57;2019_Dec_07_1040;iat_vr;59.86041747839583;
4;BAUM;Natur;q;0;6;6;10;q;1;1.4465762000036193;001;NSMS57;2019_Dec_07_1040;iat_vr;59.86041747839583;
4;BLUME;Natur;q;0;7;7;12;q;1;1.281731299997773;001;NSMS57;2019_Dec_07_1040;iat_vr;59.86041747839583;
4;EINWANDFREI;positiv;p;0;8;8;6;p;1;0.963876199995866;001;NSMS57;2019_Dec_07_1040;iat_vr;59.86041747839583;
4;KLEIDER;Gemacht;p;0;9;9;17;p;1;1.1123757999957888;001;NSMS57;2019_Dec_07_1040;iat_vr;59.86041747839583;
4;GEBÄUDE;Gemacht;p;0;10;10;15;p;1;1.3652008999997634;001;NSMS57;2019_Dec_07_1040;iat_vr;59.86041747839583;
4;SCHLIMM;negativ;q;0;11;11;0;q;1;0.9503855000002659;001;NSMS57;2019_Dec_07_1040;iat_vr;59.86041747839583;
4;COMPUTER;Gemacht;p;0;12;12;18;p;1;1.193992900000012;001;NSMS57;2019_Dec_07_1040;iat_vr;59.86041747839583;
4;SCHLECHT;negativ;q;0;13;13;1;q;1;1.6854565999965416;001;NSMS57;2019_Dec_07_1040;iat_vr;59.86041747839583;
4;POSITIV;positiv;p;0;14;14;8;p;1;1.5345742999998038;001;NSMS57;2019_Dec_07_1040;iat_vr;59.86041747839583;
4;STEIN;Natur;q;0;15;15;14;q;1;0.9816412000000128;001;NSMS57;2019_Dec_07_1040;iat_vr;59.86041747839583;
4;WASSER;Natur;q;0;16;16;11;q;1;1.3796158999975887;001;NSMS57;2019_Dec_07_1040;iat_vr;59.86041747839583;
4;AUSGEZEICHNET;positiv;p;0;17;17;5;p;1;0.933202699998219;001;NSMS57;2019_Dec_07_1040;iat_vr;59.86041747839583;
4;HERVORRAGEND;positiv;p;0;18;18;7;p;1;0.9994643999962136;001;NSMS57;2019_Dec_07_1040;iat_vr;59.86041747839583;
4;LAMPE;Gemacht;p;0;19;19;19;p;1;1.002022799999395;001;NSMS57;2019_Dec_07_1040;iat_vr;59.86041747839583;
4;AUSGEZEICHNET;positiv;p;1;0;20;5;p;1;1.1833639000033145;001;NSMS57;2019_Dec_07_1040;iat_vr;59.86041747839583;
4;STADT;Gemacht;p;1;1;21;16;p;1;1.41530629999761;001;NSMS57;2019_Dec_07_1040;iat_vr;59.86041747839583;
4;BAUM;Natur;q;1;2;22;10;q;1;1.0157701999996789;001;NSMS57;2019_Dec_07_1040;iat_vr;59.86041747839583;
4;SCHWACH;negativ;q;1;3;23;4;q;1;0.9781005999975605;001;NSMS57;2019_Dec_07_1040;iat_vr;59.86041747839583;
4;COMPUTER;Gemacht;p;1;4;24;18;p;1;1.0277245999968727;001;NSMS57;2019_Dec_07_1040;iat_vr;59.86041747839583;
4;SCHÄDLICH;negativ;q;1;5;25;3;q;1;1.0641305999961332;001;NSMS57;2019_Dec_07_1040;iat_vr;59.86041747839583;
4;GUT;positiv;p;1;6;26;9;p;1;0.8646940999969956;001;NSMS57;2019_Dec_07_1040;iat_vr;59.86041747839583;
4;HERVORRAGEND;positiv;p;1;7;27;7;p;1;0.7947461000003386;001;NSMS57;2019_Dec_07_1040;iat_vr;59.86041747839583;
4;POSITIV;positiv;p;1;8;28;8;p;1;0.8469717999978457;001;NSMS57;2019_Dec_07_1040;iat_vr;59.86041747839583;
4;NEGATIV;negativ;q;1;9;29;2;q;1;0.8152033000005758;001;NSMS57;2019_Dec_07_1040;iat_vr;59.86041747839583;
4;STEIN;Natur;q;1;10;30;14;q;1;1.1132305999999517;001;NSMS57;2019_Dec_07_1040;iat_vr;59.86041747839583;
4;WASSER;Natur;q;1;11;31;11;q;1;0.9481094000002486;001;NSMS57;2019_Dec_07_1040;iat_vr;59.86041747839583;
4;TIER;Natur;q;1;12;32;13;q;1;1.9319516999967163;001;NSMS57;2019_Dec_07_1040;iat_vr;59.86041747839583;
4;LAMPE;Gemacht;p;1;13;33;19;p;1;0.8308737999977893;001;NSMS57;2019_Dec_07_1040;iat_vr;59.86041747839583;
4;KLEIDER;Gemacht;p;1;14;34;17;p;1;1.1143359000052442;001;NSMS57;2019_Dec_07_1040;iat_vr;59.86041747839583;
4;SCHLIMM;negativ;q;1;15;35;0;q;1;0.8644849999982398;001;NSMS57;2019_Dec_07_1040;iat_vr;59.86041747839583;
4;SCHLECHT;negativ;q;1;16;36;1;q;1;0.8795204999987618;001;NSMS57;2019_Dec_07_1040;iat_vr;59.86041747839583;
4;GEBÄUDE;Gemacht;p;1;17;37;15;p;1;0.8261557000005268;001;NSMS57;2019_Dec_07_1040;iat_vr;59.86041747839583;
4;EINWANDFREI;positiv;p;1;18;38;6;p;1;0.8451300000015181;001;NSMS57;2019_Dec_07_1040;iat_vr;59.86041747839583;
4;BLUME;Natur;q;1;19;39;12;q;1;1.2303681000048527;001;NSMS57;2019_Dec_07_1040;iat_vr;59.86041747839583;
;;;;;;;;;;;001;NSMS57;2019_Dec_07_1040;iat_vr;59.86041747839583;
5;BAUM;Natur;p;0;0;0;0;p;1;9.314815600002476;001;NSMS57;2019_Dec_07_1040;iat_vr;59.86041747839583;
5;GEBÄUDE;Gemacht;q;0;1;1;5;q;1;1.4956167999989702;001;NSMS57;2019_Dec_07_1040;iat_vr;59.86041747839583;
5;LAMPE;Gemacht;q;0;2;2;9;q;1;2.0288596999962465;001;NSMS57;2019_Dec_07_1040;iat_vr;59.86041747839583;
5;BLUME;Natur;p;0;3;3;2;p;1;1.1619934999980615;001;NSMS57;2019_Dec_07_1040;iat_vr;59.86041747839583;
5;STEIN;Natur;p;0;4;4;4;p;1;1.23191229999793;001;NSMS57;2019_Dec_07_1040;iat_vr;59.86041747839583;
5;STADT;Gemacht;q;0;5;5;6;q;1;0.8641926999989664;001;NSMS57;2019_Dec_07_1040;iat_vr;59.86041747839583;
5;WASSER;Natur;p;0;6;6;1;p;1;0.8803636000011466;001;NSMS57;2019_Dec_07_1040;iat_vr;59.86041747839583;
5;TIER;Natur;p;0;7;7;3;p;1;1.8991205999991507;001;NSMS57;2019_Dec_07_1040;iat_vr;59.86041747839583;
5;COMPUTER;Gemacht;q;0;8;8;8;q;1;0.948992100005853;001;NSMS57;2019_Dec_07_1040;iat_vr;59.86041747839583;
5;KLEIDER;Gemacht;q;0;9;9;7;q;1;1.0310456000006525;001;NSMS57;2019_Dec_07_1040;iat_vr;59.86041747839583;
5;LAMPE;Gemacht;q;1;0;10;9;q;1;1.2149353999993764;001;NSMS57;2019_Dec_07_1040;iat_vr;59.86041747839583;
5;WASSER;Natur;p;1;1;11;1;p;1;0.8975551999974414;001;NSMS57;2019_Dec_07_1040;iat_vr;59.86041747839583;
5;STEIN;Natur;p;1;2;12;4;p;1;1.1977181999973254;001;NSMS57;2019_Dec_07_1040;iat_vr;59.86041747839583;
5;BLUME;Natur;p;1;3;13;2;p;1;2.0124651000005542;001;NSMS57;2019_Dec_07_1040;iat_vr;59.86041747839583;
5;COMPUTER;Gemacht;q;1;4;14;8;q;1;0.7962136999994982;001;NSMS57;2019_Dec_07_1040;iat_vr;59.86041747839583;
5;KLEIDER;Gemacht;q;1;5;15;7;q;1;2.778050999993866;001;NSMS57;2019_Dec_07_1040;iat_vr;59.86041747839583;
5;BAUM;Natur;p;1;6;16;0;p;1;1.3326499999966472;001;NSMS57;2019_Dec_07_1040;iat_vr;59.86041747839583;
5;TIER;Natur;p;1;7;17;3;p;1;1.3133448000007775;001;NSMS57;2019_Dec_07_1040;iat_vr;59.86041747839583;
5;STADT;Gemacht;q;1;8;18;6;q;1;0.8143000999989454;001;NSMS57;2019_Dec_07_1040;iat_vr;59.86041747839583;
5;GEBÄUDE;Gemacht;q;1;9;19;5;q;1;0.9684421999991173;001;NSMS57;2019_Dec_07_1040;iat_vr;59.86041747839583;
;;;;;;;;;;;001;NSMS57;2019_Dec_07_1040;iat_vr;59.86041747839583;
6;BAUM;Natur;p;0;0;0;0;p;1;2.0934866999959922;001;NSMS57;2019_Dec_07_1040;iat_vr;59.86041747839583;
6;BLUME;Natur;p;0;1;1;2;p;1;0.8646159999989322;001;NSMS57;2019_Dec_07_1040;iat_vr;59.86041747839583;
6;POSITIV;positiv;p;0;2;2;18;p;1;1.0142226000025403;001;NSMS57;2019_Dec_07_1040;iat_vr;59.86041747839583;
6;HERVORRAGEND;positiv;p;0;3;3;17;p;1;1.161936099997547;001;NSMS57;2019_Dec_07_1040;iat_vr;59.86041747839583;
6;GUT;positiv;p;0;4;4;19;p;1;0.7628785999986576;001;NSMS57;2019_Dec_07_1040;iat_vr;59.86041747839583;
6;WASSER;Natur;p;0;5;5;1;p;1;0.9463948999982676;001;NSMS57;2019_Dec_07_1040;iat_vr;59.86041747839583;
6;TIER;Natur;p;0;6;6;3;p;1;0.9156509000022197;001;NSMS57;2019_Dec_07_1040;iat_vr;59.86041747839583;
6;EINWANDFREI;positiv;p;0;7;7;16;p;1;1.2245578000001842;001;NSMS57;2019_Dec_07_1040;iat_vr;59.86041747839583;
6;COMPUTER;Gemacht;q;0;8;8;8;q;1;0.9124549999978626;001;NSMS57;2019_Dec_07_1040;iat_vr;59.86041747839583;
6;SCHÄDLICH;negativ;q;0;9;9;13;q;1;0.9614870000004885;001;NSMS57;2019_Dec_07_1040;iat_vr;59.86041747839583;
6;GEBÄUDE;Gemacht;q;0;10;10;5;p;0;0.9787467999994988;001;NSMS57;2019_Dec_07_1040;iat_vr;59.86041747839583;
6;SCHLIMM;negativ;q;0;11;11;10;q;1;1.6630043000041042;001;NSMS57;2019_Dec_07_1040;iat_vr;59.86041747839583;
6;KLEIDER;Gemacht;q;0;12;12;7;q;1;4.413744600002246;001;NSMS57;2019_Dec_07_1040;iat_vr;59.86041747839583;
6;STEIN;Natur;p;0;13;13;4;p;1;1.2313667000053101;001;NSMS57;2019_Dec_07_1040;iat_vr;59.86041747839583;
6;SCHLECHT;negativ;q;0;14;14;11;q;1;1.064004699997895;001;NSMS57;2019_Dec_07_1040;iat_vr;59.86041747839583;
6;STADT;Gemacht;q;0;15;15;6;q;1;1.2980080999986967;001;NSMS57;2019_Dec_07_1040;iat_vr;59.86041747839583;
6;AUSGEZEICHNET;positiv;p;0;16;16;15;p;1;0.9764033000028576;001;NSMS57;2019_Dec_07_1040;iat_vr;59.86041747839583;
6;LAMPE;Gemacht;q;0;17;17;9;q;1;1.1010524999946938;001;NSMS57;2019_Dec_07_1040;iat_vr;59.86041747839583;
6;NEGATIV;negativ;q;0;18;18;12;q;1;2.06355959999928;001;NSMS57;2019_Dec_07_1040;iat_vr;59.86041747839583;
6;SCHWACH;negativ;q;0;19;19;14;q;1;0.9965631000013673;001;NSMS57;2019_Dec_07_1040;iat_vr;59.86041747839583;
;;;;;;;;;;;001;NSMS57;2019_Dec_07_1040;iat_vr;59.86041747839583;
7;SCHLECHT;negativ;q;0;0;0;11;q;1;1.0352283000029274;001;NSMS57;2019_Dec_07_1040;iat_vr;59.86041747839583;
7;EINWANDFREI;positiv;p;0;1;1;16;p;1;0.8279935999962618;001;NSMS57;2019_Dec_07_1040;iat_vr;59.86041747839583;
7;KLEIDER;Gemacht;q;0;2;2;7;q;1;1.2142351000002236;001;NSMS57;2019_Dec_07_1040;iat_vr;59.86041747839583;
7;WASSER;Natur;p;0;3;3;1;p;1;1.014371699995536;001;NSMS57;2019_Dec_07_1040;iat_vr;59.86041747839583;
7;NEGATIV;negativ;q;0;4;4;12;q;1;0.9139951000033761;001;NSMS57;2019_Dec_07_1040;iat_vr;59.86041747839583;
7;COMPUTER;Gemacht;q;0;5;5;8;q;1;1.111574800001108;001;NSMS57;2019_Dec_07_1040;iat_vr;59.86041747839583;
7;STEIN;Natur;p;0;6;6;4;p;1;0.877359099999012;001;NSMS57;2019_Dec_07_1040;iat_vr;59.86041747839583;
7;AUSGEZEICHNET;positiv;p;0;7;7;15;p;1;1.3962869999959366;001;NSMS57;2019_Dec_07_1040;iat_vr;59.86041747839583;
7;GUT;positiv;p;0;8;8;19;p;1;0.8659421000047587;001;NSMS57;2019_Dec_07_1040;iat_vr;59.86041747839583;
7;HERVORRAGEND;positiv;p;0;9;9;17;p;1;1.2108541000052355;001;NSMS57;2019_Dec_07_1040;iat_vr;59.86041747839583;
7;SCHWACH;negativ;q;0;10;10;14;q;1;0.8685970999940764;001;NSMS57;2019_Dec_07_1040;iat_vr;59.86041747839583;
7;SCHÄDLICH;negativ;q;0;11;11;13;q;1;0.72771439999633;001;NSMS57;2019_Dec_07_1040;iat_vr;59.86041747839583;
7;SCHLIMM;negativ;q;0;12;12;10;q;1;0.929047300000093;001;NSMS57;2019_Dec_07_1040;iat_vr;59.86041747839583;
7;LAMPE;Gemacht;q;0;13;13;9;q;1;1.5985971999980393;001;NSMS57;2019_Dec_07_1040;iat_vr;59.86041747839583;
7;POSITIV;positiv;p;0;14;14;18;p;1;0.86426709999796;001;NSMS57;2019_Dec_07_1040;iat_vr;59.86041747839583;
7;STADT;Gemacht;q;0;15;15;6;q;1;0.7981574000004912;001;NSMS57;2019_Dec_07_1040;iat_vr;59.86041747839583;
7;BAUM;Natur;p;0;16;16;0;p;1;0.7318719000031706;001;NSMS57;2019_Dec_07_1040;iat_vr;59.86041747839583;
7;TIER;Natur;p;0;17;17;3;p;1;0.8624517999996897;001;NSMS57;2019_Dec_07_1040;iat_vr;59.86041747839583;
7;BLUME;Natur;p;0;18;18;2;p;1;0.9145579999967595;001;NSMS57;2019_Dec_07_1040;iat_vr;59.86041747839583;
7;GEBÄUDE;Gemacht;q;0;19;19;5;q;1;1.0980047999983071;001;NSMS57;2019_Dec_07_1040;iat_vr;59.86041747839583;
7;TIER;Natur;p;1;0;20;3;p;1;1.081979800001136;001;NSMS57;2019_Dec_07_1040;iat_vr;59.86041747839583;
7;GUT;positiv;p;1;1;21;19;p;1;0.9829651000036392;001;NSMS57;2019_Dec_07_1040;iat_vr;59.86041747839583;
7;SCHLECHT;negativ;q;1;2;22;11;q;1;0.9311061000043992;001;NSMS57;2019_Dec_07_1040;iat_vr;59.86041747839583;
7;STEIN;Natur;p;1;3;23;4;p;1;1.4978336000058334;001;NSMS57;2019_Dec_07_1040;iat_vr;59.86041747839583;
7;GEBÄUDE;Gemacht;q;1;4;24;5;q;1;0.927272399996582;001;NSMS57;2019_Dec_07_1040;iat_vr;59.86041747839583;
7;POSITIV;positiv;p;1;5;25;18;p;1;0.7967578000025242;001;NSMS57;2019_Dec_07_1040;iat_vr;59.86041747839583;
7;SCHÄDLICH;negativ;q;1;6;26;13;q;1;0.9191481000016211;001;NSMS57;2019_Dec_07_1040;iat_vr;59.86041747839583;
7;SCHLIMM;negativ;q;1;7;27;10;q;1;0.8511698999936925;001;NSMS57;2019_Dec_07_1040;iat_vr;59.86041747839583;
7;NEGATIV;negativ;q;1;8;28;12;q;1;1.0958374999972875;001;NSMS57;2019_Dec_07_1040;iat_vr;59.86041747839583;
7;LAMPE;Gemacht;q;1;9;29;9;q;1;1.0292065000030561;001;NSMS57;2019_Dec_07_1040;iat_vr;59.86041747839583;
7;SCHWACH;negativ;q;1;10;30;14;q;1;0.8791950000013458;001;NSMS57;2019_Dec_07_1040;iat_vr;59.86041747839583;
7;AUSGEZEICHNET;positiv;p;1;11;31;15;p;1;0.8619969999999739;001;NSMS57;2019_Dec_07_1040;iat_vr;59.86041747839583;
7;BLUME;Natur;p;1;12;32;2;p;1;0.8358829999997397;001;NSMS57;2019_Dec_07_1040;iat_vr;59.86041747839583;
7;HERVORRAGEND;positiv;p;1;13;33;17;p;1;0.7935082999974838;001;NSMS57;2019_Dec_07_1040;iat_vr;59.86041747839583;
7;EINWANDFREI;positiv;p;1;14;34;16;p;1;0.8294409000009182;001;NSMS57;2019_Dec_07_1040;iat_vr;59.86041747839583;
7;COMPUTER;Gemacht;q;1;15;35;8;q;1;0.7647660000002361;001;NSMS57;2019_Dec_07_1040;iat_vr;59.86041747839583;
7;BAUM;Natur;p;1;16;36;0;p;1;0.8486527999993996;001;NSMS57;2019_Dec_07_1040;iat_vr;59.86041747839583;
7;STADT;Gemacht;q;1;17;37;6;q;1;0.8859689000018989;001;NSMS57;2019_Dec_07_1040;iat_vr;59.86041747839583;
7;KLEIDER;Gemacht;q;1;18;38;7;q;1;1.1982848000043305;001;NSMS57;2019_Dec_07_1040;iat_vr;59.86041747839583;
7;WASSER;Natur;p;1;19;39;1;p;1;1.0475645000042277;001;NSMS57;2019_Dec_07_1040;iat_vr;59.86041747839583;
;;;;;;;;;;;001;NSMS57;2019_Dec_07_1040;iat_vr;59.86041747839583;
