Block;Word;Category;CorrResp;trials.thisRepN;trials.thisTrialN;trials.thisN;trials.thisIndex;key_resp_2.keys;key_resp_2.corr;key_resp_2.rt;session;participant;date;expName;frameRate;
1;GEBÄUDE;Gemacht;p;0;0;0;5;p;1;0.8169577999997273;002;NSNT98;2019_Dec_05_1322;iat_vr;60.009313445412296;
1;STADT;Gemacht;p;0;1;1;6;p;1;0.5570810999997775;002;NSNT98;2019_Dec_05_1322;iat_vr;60.009313445412296;
1;KLEIDER;Gemacht;p;0;2;2;7;p;1;0.7718353000000207;002;NSNT98;2019_Dec_05_1322;iat_vr;60.009313445412296;
1;STEIN;Natur;q;0;3;3;4;q;1;0.7338197999997647;002;NSNT98;2019_Dec_05_1322;iat_vr;60.009313445412296;
1;BAUM;Natur;q;0;4;4;0;q;1;0.49561500000163505;002;NSNT98;2019_Dec_05_1322;iat_vr;60.009313445412296;
1;BLUME;Natur;q;0;5;5;2;q;1;0.6481479000012769;002;NSNT98;2019_Dec_05_1322;iat_vr;60.009313445412296;
1;COMPUTER;Gemacht;p;0;6;6;8;p;1;0.5204845999996905;002;NSNT98;2019_Dec_05_1322;iat_vr;60.009313445412296;
1;LAMPE;Gemacht;p;0;7;7;9;p;1;0.8353690000003553;002;NSNT98;2019_Dec_05_1322;iat_vr;60.009313445412296;
1;TIER;Natur;q;0;8;8;3;q;1;0.5325097000004462;002;NSNT98;2019_Dec_05_1322;iat_vr;60.009313445412296;
1;WASSER;Natur;q;0;9;9;1;q;1;1.3124504999996134;002;NSNT98;2019_Dec_05_1322;iat_vr;60.009313445412296;
1;LAMPE;Gemacht;p;1;0;10;9;p;1;0.5820416000005935;002;NSNT98;2019_Dec_05_1322;iat_vr;60.009313445412296;
1;STEIN;Natur;q;1;1;11;4;q;1;0.7137844999997469;002;NSNT98;2019_Dec_05_1322;iat_vr;60.009313445412296;
1;GEBÄUDE;Gemacht;p;1;2;12;5;p;1;0.7172608000000764;002;NSNT98;2019_Dec_05_1322;iat_vr;60.009313445412296;
1;STADT;Gemacht;p;1;3;13;6;p;1;0.5341447999999218;002;NSNT98;2019_Dec_05_1322;iat_vr;60.009313445412296;
1;BLUME;Natur;q;1;4;14;2;q;1;0.6189085999994859;002;NSNT98;2019_Dec_05_1322;iat_vr;60.009313445412296;
1;KLEIDER;Gemacht;p;1;5;15;7;p;1;0.7489587000000029;002;NSNT98;2019_Dec_05_1322;iat_vr;60.009313445412296;
1;BAUM;Natur;q;1;6;16;0;q;1;0.5967220000002271;002;NSNT98;2019_Dec_05_1322;iat_vr;60.009313445412296;
1;COMPUTER;Gemacht;p;1;7;17;8;p;1;0.5494376000006014;002;NSNT98;2019_Dec_05_1322;iat_vr;60.009313445412296;
1;WASSER;Natur;q;1;8;18;1;q;1;0.6017979999996896;002;NSNT98;2019_Dec_05_1322;iat_vr;60.009313445412296;
1;TIER;Natur;q;1;9;19;3;q;1;0.665157100000215;002;NSNT98;2019_Dec_05_1322;iat_vr;60.009313445412296;
;;;;;;;;;;;002;NSNT98;2019_Dec_05_1322;iat_vr;60.009313445412296;
2;POSITIV;positiv;p;0;0;0;8;p;1;0.5361474000001181;002;NSNT98;2019_Dec_05_1322;iat_vr;60.009313445412296;
2;GUT;positiv;p;0;1;1;9;p;1;0.4490285000010772;002;NSNT98;2019_Dec_05_1322;iat_vr;60.009313445412296;
2;HERVORRAGEND;positiv;p;0;2;2;7;p;1;0.5744905999999901;002;NSNT98;2019_Dec_05_1322;iat_vr;60.009313445412296;
2;SCHÄDLICH;negativ;q;0;3;3;3;q;1;0.4789208999991388;002;NSNT98;2019_Dec_05_1322;iat_vr;60.009313445412296;
2;EINWANDFREI;positiv;p;0;4;4;6;p;1;0.5929625000007945;002;NSNT98;2019_Dec_05_1322;iat_vr;60.009313445412296;
2;SCHWACH;negativ;q;0;5;5;4;q;1;0.863244999998642;002;NSNT98;2019_Dec_05_1322;iat_vr;60.009313445412296;
2;SCHLECHT;negativ;q;0;6;6;1;q;1;0.5627691000008781;002;NSNT98;2019_Dec_05_1322;iat_vr;60.009313445412296;
2;AUSGEZEICHNET;positiv;p;0;7;7;5;p;1;0.6024520999999368;002;NSNT98;2019_Dec_05_1322;iat_vr;60.009313445412296;
2;NEGATIV;negativ;q;0;8;8;2;q;1;0.4647027999999409;002;NSNT98;2019_Dec_05_1322;iat_vr;60.009313445412296;
2;SCHLIMM;negativ;q;0;9;9;0;q;1;0.6485938000005262;002;NSNT98;2019_Dec_05_1322;iat_vr;60.009313445412296;
2;EINWANDFREI;positiv;p;1;0;10;6;p;1;0.7453267999990203;002;NSNT98;2019_Dec_05_1322;iat_vr;60.009313445412296;
2;GUT;positiv;p;1;1;11;9;p;1;0.5492980000017269;002;NSNT98;2019_Dec_05_1322;iat_vr;60.009313445412296;
2;AUSGEZEICHNET;positiv;p;1;2;12;5;p;1;0.9312434000003122;002;NSNT98;2019_Dec_05_1322;iat_vr;60.009313445412296;
2;POSITIV;positiv;p;1;3;13;8;p;1;0.5796597999997175;002;NSNT98;2019_Dec_05_1322;iat_vr;60.009313445412296;
2;SCHWACH;negativ;q;1;4;14;4;q;1;0.682913999999073;002;NSNT98;2019_Dec_05_1322;iat_vr;60.009313445412296;
2;SCHLIMM;negativ;q;1;5;15;0;q;1;0.7667664999989938;002;NSNT98;2019_Dec_05_1322;iat_vr;60.009313445412296;
2;NEGATIV;negativ;q;1;6;16;2;q;1;0.4791163999998389;002;NSNT98;2019_Dec_05_1322;iat_vr;60.009313445412296;
2;HERVORRAGEND;positiv;p;1;7;17;7;p;1;0.4677434000004723;002;NSNT98;2019_Dec_05_1322;iat_vr;60.009313445412296;
2;SCHLECHT;negativ;q;1;8;18;1;q;1;0.48539290000007895;002;NSNT98;2019_Dec_05_1322;iat_vr;60.009313445412296;
2;SCHÄDLICH;negativ;q;1;9;19;3;q;1;0.5308017000006657;002;NSNT98;2019_Dec_05_1322;iat_vr;60.009313445412296;
;;;;;;;;;;;002;NSNT98;2019_Dec_05_1322;iat_vr;60.009313445412296;
3;POSITIV;positiv;p;0;0;0;8;p;1;0.6906785999999556;002;NSNT98;2019_Dec_05_1322;iat_vr;60.009313445412296;
3;STEIN;Natur;q;0;1;1;14;q;1;0.6823709000000235;002;NSNT98;2019_Dec_05_1322;iat_vr;60.009313445412296;
3;LAMPE;Gemacht;p;0;2;2;19;p;1;0.8892620000005991;002;NSNT98;2019_Dec_05_1322;iat_vr;60.009313445412296;
3;KLEIDER;Gemacht;p;0;3;3;17;p;1;0.6285499999994499;002;NSNT98;2019_Dec_05_1322;iat_vr;60.009313445412296;
3;GEBÄUDE;Gemacht;p;0;4;4;15;p;1;0.6112763000000996;002;NSNT98;2019_Dec_05_1322;iat_vr;60.009313445412296;
3;BAUM;Natur;q;0;5;5;10;q;1;0.6629652000010537;002;NSNT98;2019_Dec_05_1322;iat_vr;60.009313445412296;
3;COMPUTER;Gemacht;p;0;6;6;18;p;1;0.9349007999990135;002;NSNT98;2019_Dec_05_1322;iat_vr;60.009313445412296;
3;NEGATIV;negativ;q;0;7;7;2;q;1;0.564505199999985;002;NSNT98;2019_Dec_05_1322;iat_vr;60.009313445412296;
3;GUT;positiv;p;0;8;8;9;p;1;0.6653606999989279;002;NSNT98;2019_Dec_05_1322;iat_vr;60.009313445412296;
3;TIER;Natur;q;0;9;9;13;q;1;0.8655589000009059;002;NSNT98;2019_Dec_05_1322;iat_vr;60.009313445412296;
3;BLUME;Natur;q;0;10;10;12;q;1;1.6647845999996207;002;NSNT98;2019_Dec_05_1322;iat_vr;60.009313445412296;
3;WASSER;Natur;q;0;11;11;11;q;1;0.516060899999502;002;NSNT98;2019_Dec_05_1322;iat_vr;60.009313445412296;
3;AUSGEZEICHNET;positiv;p;0;12;12;5;p;1;0.8130610000007437;002;NSNT98;2019_Dec_05_1322;iat_vr;60.009313445412296;
3;EINWANDFREI;positiv;p;0;13;13;6;p;1;0.5294890999994095;002;NSNT98;2019_Dec_05_1322;iat_vr;60.009313445412296;
3;SCHÄDLICH;negativ;q;0;14;14;3;q;1;0.7491141999998945;002;NSNT98;2019_Dec_05_1322;iat_vr;60.009313445412296;
3;HERVORRAGEND;positiv;p;0;15;15;7;p;1;1.151847799999814;002;NSNT98;2019_Dec_05_1322;iat_vr;60.009313445412296;
3;SCHWACH;negativ;q;0;16;16;4;q;1;0.5459895000003598;002;NSNT98;2019_Dec_05_1322;iat_vr;60.009313445412296;
3;SCHLECHT;negativ;q;0;17;17;1;q;1;0.6010229000003164;002;NSNT98;2019_Dec_05_1322;iat_vr;60.009313445412296;
3;STADT;Gemacht;p;0;18;18;16;p;1;0.6171618000007584;002;NSNT98;2019_Dec_05_1322;iat_vr;60.009313445412296;
3;SCHLIMM;negativ;q;0;19;19;0;p;0;0.7459596000007878;002;NSNT98;2019_Dec_05_1322;iat_vr;60.009313445412296;
;;;;;;;;;;;002;NSNT98;2019_Dec_05_1322;iat_vr;60.009313445412296;
4;POSITIV;positiv;p;0;0;0;8;p;1;1.4378825000003417;002;NSNT98;2019_Dec_05_1322;iat_vr;60.009313445412296;
4;GEBÄUDE;Gemacht;p;0;1;1;15;p;1;1.0973189999986062;002;NSNT98;2019_Dec_05_1322;iat_vr;60.009313445412296;
4;GUT;positiv;p;0;2;2;9;p;1;0.6327806999997847;002;NSNT98;2019_Dec_05_1322;iat_vr;60.009313445412296;
4;SCHWACH;negativ;q;0;3;3;4;q;1;0.6001745000012306;002;NSNT98;2019_Dec_05_1322;iat_vr;60.009313445412296;
4;EINWANDFREI;positiv;p;0;4;4;6;p;1;0.9189908999996987;002;NSNT98;2019_Dec_05_1322;iat_vr;60.009313445412296;
4;HERVORRAGEND;positiv;p;0;5;5;7;p;1;0.5526798999999301;002;NSNT98;2019_Dec_05_1322;iat_vr;60.009313445412296;
4;TIER;Natur;q;0;6;6;13;q;1;1.2477267000012944;002;NSNT98;2019_Dec_05_1322;iat_vr;60.009313445412296;
4;BLUME;Natur;q;0;7;7;12;q;1;0.507519400000092;002;NSNT98;2019_Dec_05_1322;iat_vr;60.009313445412296;
4;KLEIDER;Gemacht;p;0;8;8;17;p;1;0.8320633999992424;002;NSNT98;2019_Dec_05_1322;iat_vr;60.009313445412296;
4;STEIN;Natur;q;0;9;9;14;q;1;0.6321506000003865;002;NSNT98;2019_Dec_05_1322;iat_vr;60.009313445412296;
4;LAMPE;Gemacht;p;0;10;10;19;p;1;1.5144185000008292;002;NSNT98;2019_Dec_05_1322;iat_vr;60.009313445412296;
4;BAUM;Natur;q;0;11;11;10;q;1;0.6652728999997635;002;NSNT98;2019_Dec_05_1322;iat_vr;60.009313445412296;
4;SCHÄDLICH;negativ;q;0;12;12;3;q;1;0.7304949999997916;002;NSNT98;2019_Dec_05_1322;iat_vr;60.009313445412296;
4;COMPUTER;Gemacht;p;0;13;13;18;p;1;1.8266867999991518;002;NSNT98;2019_Dec_05_1322;iat_vr;60.009313445412296;
4;NEGATIV;negativ;q;0;14;14;2;q;1;0.8653635000009672;002;NSNT98;2019_Dec_05_1322;iat_vr;60.009313445412296;
4;SCHLIMM;negativ;q;0;15;15;0;q;1;0.8011787999985245;002;NSNT98;2019_Dec_05_1322;iat_vr;60.009313445412296;
4;STADT;Gemacht;p;0;16;16;16;p;1;1.064054100001158;002;NSNT98;2019_Dec_05_1322;iat_vr;60.009313445412296;
4;AUSGEZEICHNET;positiv;p;0;17;17;5;p;1;0.6142056000007869;002;NSNT98;2019_Dec_05_1322;iat_vr;60.009313445412296;
4;SCHLECHT;negativ;q;0;18;18;1;q;1;0.8643808999986504;002;NSNT98;2019_Dec_05_1322;iat_vr;60.009313445412296;
4;WASSER;Natur;q;0;19;19;11;q;1;0.9146964999999909;002;NSNT98;2019_Dec_05_1322;iat_vr;60.009313445412296;
4;GEBÄUDE;Gemacht;p;1;0;20;15;p;1;0.7321238000004087;002;NSNT98;2019_Dec_05_1322;iat_vr;60.009313445412296;
4;LAMPE;Gemacht;p;1;1;21;19;p;1;0.9305459000006522;002;NSNT98;2019_Dec_05_1322;iat_vr;60.009313445412296;
4;WASSER;Natur;q;1;2;22;11;q;1;0.6007745999995677;002;NSNT98;2019_Dec_05_1322;iat_vr;60.009313445412296;
4;COMPUTER;Gemacht;p;1;3;23;18;p;1;2.3117364999998244;002;NSNT98;2019_Dec_05_1322;iat_vr;60.009313445412296;
4;BLUME;Natur;q;1;4;24;12;q;1;0.5507333999994444;002;NSNT98;2019_Dec_05_1322;iat_vr;60.009313445412296;
4;BAUM;Natur;q;1;5;25;10;q;1;0.5491772000004858;002;NSNT98;2019_Dec_05_1322;iat_vr;60.009313445412296;
4;GUT;positiv;p;1;6;26;9;p;1;0.6649403999999777;002;NSNT98;2019_Dec_05_1322;iat_vr;60.009313445412296;
4;KLEIDER;Gemacht;p;1;7;27;17;p;1;0.9951888999985385;002;NSNT98;2019_Dec_05_1322;iat_vr;60.009313445412296;
4;HERVORRAGEND;positiv;p;1;8;28;7;p;1;0.9294995999989624;002;NSNT98;2019_Dec_05_1322;iat_vr;60.009313445412296;
4;SCHLECHT;negativ;q;1;9;29;1;q;1;0.5624241000004986;002;NSNT98;2019_Dec_05_1322;iat_vr;60.009313445412296;
4;TIER;Natur;q;1;10;30;13;q;1;0.9000952999995206;002;NSNT98;2019_Dec_05_1322;iat_vr;60.009313445412296;
4;EINWANDFREI;positiv;p;1;11;31;6;p;1;0.8186908000006952;002;NSNT98;2019_Dec_05_1322;iat_vr;60.009313445412296;
4;SCHLIMM;negativ;q;1;12;32;0;q;1;0.581272600000375;002;NSNT98;2019_Dec_05_1322;iat_vr;60.009313445412296;
4;SCHWACH;negativ;q;1;13;33;4;q;1;0.6452627999988181;002;NSNT98;2019_Dec_05_1322;iat_vr;60.009313445412296;
4;POSITIV;positiv;p;1;14;34;8;p;1;0.6150582999998733;002;NSNT98;2019_Dec_05_1322;iat_vr;60.009313445412296;
4;AUSGEZEICHNET;positiv;p;1;15;35;5;p;1;0.6263347000003705;002;NSNT98;2019_Dec_05_1322;iat_vr;60.009313445412296;
4;SCHÄDLICH;negativ;q;1;16;36;3;q;1;1.651550500000667;002;NSNT98;2019_Dec_05_1322;iat_vr;60.009313445412296;
4;STADT;Gemacht;p;1;17;37;16;p;1;1.0302633000010246;002;NSNT98;2019_Dec_05_1322;iat_vr;60.009313445412296;
4;STEIN;Natur;q;1;18;38;14;q;1;0.6463937000007718;002;NSNT98;2019_Dec_05_1322;iat_vr;60.009313445412296;
4;NEGATIV;negativ;q;1;19;39;2;q;1;0.9183993999995437;002;NSNT98;2019_Dec_05_1322;iat_vr;60.009313445412296;
;;;;;;;;;;;002;NSNT98;2019_Dec_05_1322;iat_vr;60.009313445412296;
5;GEBÄUDE;Gemacht;q;0;0;0;5;q;1;1.4443958000010753;002;NSNT98;2019_Dec_05_1322;iat_vr;60.009313445412296;
5;KLEIDER;Gemacht;q;0;1;1;7;q;1;0.7481397999999899;002;NSNT98;2019_Dec_05_1322;iat_vr;60.009313445412296;
5;TIER;Natur;p;0;2;2;3;p;1;0.49653609999950277;002;NSNT98;2019_Dec_05_1322;iat_vr;60.009313445412296;
5;BLUME;Natur;p;0;3;3;2;p;1;0.6303845000002184;002;NSNT98;2019_Dec_05_1322;iat_vr;60.009313445412296;
5;STADT;Gemacht;q;0;4;4;6;q;1;0.6986378000001423;002;NSNT98;2019_Dec_05_1322;iat_vr;60.009313445412296;
5;WASSER;Natur;p;0;5;5;1;p;1;0.5634563000003254;002;NSNT98;2019_Dec_05_1322;iat_vr;60.009313445412296;
5;LAMPE;Gemacht;q;0;6;6;9;q;1;0.664039799999955;002;NSNT98;2019_Dec_05_1322;iat_vr;60.009313445412296;
5;COMPUTER;Gemacht;q;0;7;7;8;q;1;0.58349619999899;002;NSNT98;2019_Dec_05_1322;iat_vr;60.009313445412296;
5;STEIN;Natur;p;0;8;8;4;p;1;0.6489670999999362;002;NSNT98;2019_Dec_05_1322;iat_vr;60.009313445412296;
5;BAUM;Natur;p;0;9;9;0;p;1;0.5314204000005702;002;NSNT98;2019_Dec_05_1322;iat_vr;60.009313445412296;
5;COMPUTER;Gemacht;q;1;0;10;8;q;1;0.5788955999996688;002;NSNT98;2019_Dec_05_1322;iat_vr;60.009313445412296;
5;TIER;Natur;p;1;1;11;3;p;1;0.5009712999999465;002;NSNT98;2019_Dec_05_1322;iat_vr;60.009313445412296;
5;GEBÄUDE;Gemacht;q;1;2;12;5;p;0;0.6428935999992973;002;NSNT98;2019_Dec_05_1322;iat_vr;60.009313445412296;
5;BAUM;Natur;p;1;3;13;0;p;1;0.9184229000002233;002;NSNT98;2019_Dec_05_1322;iat_vr;60.009313445412296;
5;STADT;Gemacht;q;1;4;14;6;q;1;0.5817396000002191;002;NSNT98;2019_Dec_05_1322;iat_vr;60.009313445412296;
5;WASSER;Natur;p;1;5;15;1;p;1;0.6151419999987411;002;NSNT98;2019_Dec_05_1322;iat_vr;60.009313445412296;
5;KLEIDER;Gemacht;q;1;6;16;7;q;1;1.2797307000000728;002;NSNT98;2019_Dec_05_1322;iat_vr;60.009313445412296;
5;BLUME;Natur;p;1;7;17;2;p;1;0.5002437999992253;002;NSNT98;2019_Dec_05_1322;iat_vr;60.009313445412296;
5;LAMPE;Gemacht;q;1;8;18;9;q;1;0.9692125999990822;002;NSNT98;2019_Dec_05_1322;iat_vr;60.009313445412296;
5;STEIN;Natur;p;1;9;19;4;p;1;0.6185409000008804;002;NSNT98;2019_Dec_05_1322;iat_vr;60.009313445412296;
;;;;;;;;;;;002;NSNT98;2019_Dec_05_1322;iat_vr;60.009313445412296;
6;STADT;Gemacht;q;0;0;0;6;q;1;1.3374708000010287;002;NSNT98;2019_Dec_05_1322;iat_vr;60.009313445412296;
6;KLEIDER;Gemacht;q;0;1;1;7;q;1;2.281849900000452;002;NSNT98;2019_Dec_05_1322;iat_vr;60.009313445412296;
6;GEBÄUDE;Gemacht;q;0;2;2;5;q;1;0.762861499999417;002;NSNT98;2019_Dec_05_1322;iat_vr;60.009313445412296;
6;BAUM;Natur;p;0;3;3;0;p;1;0.8498175999993691;002;NSNT98;2019_Dec_05_1322;iat_vr;60.009313445412296;
6;NEGATIV;negativ;q;0;4;4;12;q;1;1.3626744000011968;002;NSNT98;2019_Dec_05_1322;iat_vr;60.009313445412296;
6;SCHÄDLICH;negativ;q;0;5;5;13;q;1;3.593662499999482;002;NSNT98;2019_Dec_05_1322;iat_vr;60.009313445412296;
6;STEIN;Natur;p;0;6;6;4;p;1;2.0789748999995936;002;NSNT98;2019_Dec_05_1322;iat_vr;60.009313445412296;
6;HERVORRAGEND;positiv;p;0;7;7;17;p;1;0.9155200000004697;002;NSNT98;2019_Dec_05_1322;iat_vr;60.009313445412296;
6;COMPUTER;Gemacht;q;0;8;8;8;q;1;0.8305201999992278;002;NSNT98;2019_Dec_05_1322;iat_vr;60.009313445412296;
6;POSITIV;positiv;p;0;9;9;18;p;1;0.8672402000011061;002;NSNT98;2019_Dec_05_1322;iat_vr;60.009313445412296;
6;EINWANDFREI;positiv;p;0;10;10;16;p;1;0.8157235000016954;002;NSNT98;2019_Dec_05_1322;iat_vr;60.009313445412296;
6;SCHLECHT;negativ;q;0;11;11;11;q;1;0.7788031000000046;002;NSNT98;2019_Dec_05_1322;iat_vr;60.009313445412296;
6;GUT;positiv;p;0;12;12;19;p;1;0.6327739999996993;002;NSNT98;2019_Dec_05_1322;iat_vr;60.009313445412296;
6;TIER;Natur;p;0;13;13;3;p;1;1.8652746000007028;002;NSNT98;2019_Dec_05_1322;iat_vr;60.009313445412296;
6;SCHWACH;negativ;q;0;14;14;14;q;1;0.9958143999992899;002;NSNT98;2019_Dec_05_1322;iat_vr;60.009313445412296;
6;WASSER;Natur;p;0;15;15;1;p;1;0.7647145999999339;002;NSNT98;2019_Dec_05_1322;iat_vr;60.009313445412296;
6;LAMPE;Gemacht;q;0;16;16;9;q;1;0.7187450000001263;002;NSNT98;2019_Dec_05_1322;iat_vr;60.009313445412296;
6;BLUME;Natur;p;0;17;17;2;p;1;0.7960418000002392;002;NSNT98;2019_Dec_05_1322;iat_vr;60.009313445412296;
6;SCHLIMM;negativ;q;0;18;18;10;q;1;0.8458458999994036;002;NSNT98;2019_Dec_05_1322;iat_vr;60.009313445412296;
6;AUSGEZEICHNET;positiv;p;0;19;19;15;p;1;0.6446208999986993;002;NSNT98;2019_Dec_05_1322;iat_vr;60.009313445412296;
;;;;;;;;;;;002;NSNT98;2019_Dec_05_1322;iat_vr;60.009313445412296;
7;AUSGEZEICHNET;positiv;p;0;0;0;15;p;1;1.7007214999994176;002;NSNT98;2019_Dec_05_1322;iat_vr;60.009313445412296;
7;TIER;Natur;p;0;1;1;3;p;1;1.2493484000005992;002;NSNT98;2019_Dec_05_1322;iat_vr;60.009313445412296;
7;WASSER;Natur;p;0;2;2;1;p;1;0.9162022999989858;002;NSNT98;2019_Dec_05_1322;iat_vr;60.009313445412296;
7;GUT;positiv;p;0;3;3;19;p;1;0.7825377999997727;002;NSNT98;2019_Dec_05_1322;iat_vr;60.009313445412296;
7;STEIN;Natur;p;0;4;4;4;p;1;0.7470047999995586;002;NSNT98;2019_Dec_05_1322;iat_vr;60.009313445412296;
7;GEBÄUDE;Gemacht;q;0;5;5;5;q;1;0.7143405000006169;002;NSNT98;2019_Dec_05_1322;iat_vr;60.009313445412296;
7;POSITIV;positiv;p;0;6;6;18;p;1;0.7812438999990263;002;NSNT98;2019_Dec_05_1322;iat_vr;60.009313445412296;
7;BLUME;Natur;p;0;7;7;2;p;1;0.7807640000009997;002;NSNT98;2019_Dec_05_1322;iat_vr;60.009313445412296;
7;EINWANDFREI;positiv;p;0;8;8;16;p;1;0.7336446999997861;002;NSNT98;2019_Dec_05_1322;iat_vr;60.009313445412296;
7;SCHLECHT;negativ;q;0;9;9;11;q;1;0.752071300001262;002;NSNT98;2019_Dec_05_1322;iat_vr;60.009313445412296;
7;LAMPE;Gemacht;q;0;10;10;9;q;1;0.6986025999995036;002;NSNT98;2019_Dec_05_1322;iat_vr;60.009313445412296;
7;SCHWACH;negativ;q;0;11;11;14;q;1;0.8308663000007073;002;NSNT98;2019_Dec_05_1322;iat_vr;60.009313445412296;
7;HERVORRAGEND;positiv;p;0;12;12;17;p;1;0.7790042000015092;002;NSNT98;2019_Dec_05_1322;iat_vr;60.009313445412296;
7;NEGATIV;negativ;q;0;13;13;12;q;1;0.697692100000495;002;NSNT98;2019_Dec_05_1322;iat_vr;60.009313445412296;
7;KLEIDER;Gemacht;q;0;14;14;7;q;1;0.8478072999987489;002;NSNT98;2019_Dec_05_1322;iat_vr;60.009313445412296;
7;BAUM;Natur;p;0;15;15;0;p;1;0.9490518000002339;002;NSNT98;2019_Dec_05_1322;iat_vr;60.009313445412296;
7;SCHLIMM;negativ;q;0;16;16;10;q;1;0.8635558000005403;002;NSNT98;2019_Dec_05_1322;iat_vr;60.009313445412296;
7;COMPUTER;Gemacht;q;0;17;17;8;q;1;1.462524200000189;002;NSNT98;2019_Dec_05_1322;iat_vr;60.009313445412296;
7;SCHÄDLICH;negativ;q;0;18;18;13;q;1;0.8330110000006243;002;NSNT98;2019_Dec_05_1322;iat_vr;60.009313445412296;
7;STADT;Gemacht;q;0;19;19;6;q;1;0.8185776000009355;002;NSNT98;2019_Dec_05_1322;iat_vr;60.009313445412296;
7;KLEIDER;Gemacht;q;1;0;20;7;q;1;0.7484263999995164;002;NSNT98;2019_Dec_05_1322;iat_vr;60.009313445412296;
7;GUT;positiv;p;1;1;21;19;p;1;0.8988122000009753;002;NSNT98;2019_Dec_05_1322;iat_vr;60.009313445412296;
7;LAMPE;Gemacht;q;1;2;22;9;q;1;0.6141984999994747;002;NSNT98;2019_Dec_05_1322;iat_vr;60.009313445412296;
7;NEGATIV;negativ;q;1;3;23;12;q;1;0.7311907000002975;002;NSNT98;2019_Dec_05_1322;iat_vr;60.009313445412296;
7;SCHLECHT;negativ;q;1;4;24;11;q;1;1.0475021000002016;002;NSNT98;2019_Dec_05_1322;iat_vr;60.009313445412296;
7;BLUME;Natur;p;1;5;25;2;p;1;0.7988299000007828;002;NSNT98;2019_Dec_05_1322;iat_vr;60.009313445412296;
7;SCHÄDLICH;negativ;q;1;6;26;13;q;1;2.0147223999993003;002;NSNT98;2019_Dec_05_1322;iat_vr;60.009313445412296;
7;BAUM;Natur;p;1;7;27;0;p;1;0.7489401999991969;002;NSNT98;2019_Dec_05_1322;iat_vr;60.009313445412296;
7;EINWANDFREI;positiv;p;1;8;28;16;p;1;0.962326299999404;002;NSNT98;2019_Dec_05_1322;iat_vr;60.009313445412296;
7;GEBÄUDE;Gemacht;q;1;9;29;5;q;1;0.6813932999993995;002;NSNT98;2019_Dec_05_1322;iat_vr;60.009313445412296;
7;SCHLIMM;negativ;q;1;10;30;10;q;1;0.6678964999991877;002;NSNT98;2019_Dec_05_1322;iat_vr;60.009313445412296;
7;WASSER;Natur;p;1;11;31;1;p;1;0.7278700999995635;002;NSNT98;2019_Dec_05_1322;iat_vr;60.009313445412296;
7;SCHWACH;negativ;q;1;12;32;14;q;1;0.6837491999995109;002;NSNT98;2019_Dec_05_1322;iat_vr;60.009313445412296;
7;AUSGEZEICHNET;positiv;p;1;13;33;15;p;1;0.7290844999988622;002;NSNT98;2019_Dec_05_1322;iat_vr;60.009313445412296;
7;POSITIV;positiv;p;1;14;34;18;p;1;0.6635709000001953;002;NSNT98;2019_Dec_05_1322;iat_vr;60.009313445412296;
7;STADT;Gemacht;q;1;15;35;6;q;1;0.9526645999994798;002;NSNT98;2019_Dec_05_1322;iat_vr;60.009313445412296;
7;HERVORRAGEND;positiv;p;1;16;36;17;p;1;0.7295410999995511;002;NSNT98;2019_Dec_05_1322;iat_vr;60.009313445412296;
7;COMPUTER;Gemacht;q;1;17;37;8;q;1;0.7131609999996726;002;NSNT98;2019_Dec_05_1322;iat_vr;60.009313445412296;
7;STEIN;Natur;p;1;18;38;4;p;1;1.5339423999994324;002;NSNT98;2019_Dec_05_1322;iat_vr;60.009313445412296;
7;TIER;Natur;p;1;19;39;3;p;1;0.5993976999998267;002;NSNT98;2019_Dec_05_1322;iat_vr;60.009313445412296;
;;;;;;;;;;;002;NSNT98;2019_Dec_05_1322;iat_vr;60.009313445412296;
