Block;Word;Category;CorrResp;trials.thisRepN;trials.thisTrialN;trials.thisN;trials.thisIndex;key_resp_2.keys;key_resp_2.corr;key_resp_2.rt;session;participant;date;expName;frameRate;
1;BAUM;Natur;q;0;0;0;0;q;1;2.687108199999784;001;NSSS01;2019_Dec_07_1007;iat_vr;59.99991599860487;
1;KLEIDER;Gemacht;p;0;1;1;7;p;1;1.1514308999976492;001;NSSS01;2019_Dec_07_1007;iat_vr;59.99991599860487;
1;TIER;Natur;q;0;2;2;3;q;1;1.115044999998645;001;NSSS01;2019_Dec_07_1007;iat_vr;59.99991599860487;
1;STADT;Gemacht;p;0;3;3;6;p;1;0.9080203999983496;001;NSSS01;2019_Dec_07_1007;iat_vr;59.99991599860487;
1;BLUME;Natur;q;0;4;4;2;q;1;1.279162400001951;001;NSSS01;2019_Dec_07_1007;iat_vr;59.99991599860487;
1;STEIN;Natur;q;0;5;5;4;q;1;1.3101501000055578;001;NSSS01;2019_Dec_07_1007;iat_vr;59.99991599860487;
1;GEBÄUDE;Gemacht;p;0;6;6;5;p;1;1.872273499997391;001;NSSS01;2019_Dec_07_1007;iat_vr;59.99991599860487;
1;COMPUTER;Gemacht;p;0;7;7;8;p;1;1.0211924000032013;001;NSSS01;2019_Dec_07_1007;iat_vr;59.99991599860487;
1;LAMPE;Gemacht;p;0;8;8;9;p;1;2.102209500000754;001;NSSS01;2019_Dec_07_1007;iat_vr;59.99991599860487;
1;WASSER;Natur;q;0;9;9;1;q;1;1.5021175000001676;001;NSSS01;2019_Dec_07_1007;iat_vr;59.99991599860487;
1;LAMPE;Gemacht;p;1;0;10;9;p;1;1.180158199997095;001;NSSS01;2019_Dec_07_1007;iat_vr;59.99991599860487;
1;GEBÄUDE;Gemacht;p;1;1;11;5;p;1;2.6293726000003517;001;NSSS01;2019_Dec_07_1007;iat_vr;59.99991599860487;
1;STEIN;Natur;q;1;2;12;4;q;1;1.2637622999973246;001;NSSS01;2019_Dec_07_1007;iat_vr;59.99991599860487;
1;COMPUTER;Gemacht;p;1;3;13;8;p;1;1.0649635000008857;001;NSSS01;2019_Dec_07_1007;iat_vr;59.99991599860487;
1;BLUME;Natur;q;1;4;14;2;p;0;0.014833499997621402;001;NSSS01;2019_Dec_07_1007;iat_vr;59.99991599860487;
1;TIER;Natur;q;1;5;15;3;q;1;3.521038699997007;001;NSSS01;2019_Dec_07_1007;iat_vr;59.99991599860487;
1;KLEIDER;Gemacht;p;1;6;16;7;p;1;0.9142655999967246;001;NSSS01;2019_Dec_07_1007;iat_vr;59.99991599860487;
1;BAUM;Natur;q;1;7;17;0;q;1;1.7324490999963018;001;NSSS01;2019_Dec_07_1007;iat_vr;59.99991599860487;
1;STADT;Gemacht;p;1;8;18;6;p;1;0.7654526999976952;001;NSSS01;2019_Dec_07_1007;iat_vr;59.99991599860487;
1;WASSER;Natur;q;1;9;19;1;q;1;1.206506200003787;001;NSSS01;2019_Dec_07_1007;iat_vr;59.99991599860487;
;;;;;;;;;;;001;NSSS01;2019_Dec_07_1007;iat_vr;59.99991599860487;
2;SCHLIMM;negativ;q;0;0;0;0;p;0;3.865831999995862;001;NSSS01;2019_Dec_07_1007;iat_vr;59.99991599860487;
2;EINWANDFREI;positiv;p;0;1;1;6;q;0;0.37745670000003884;001;NSSS01;2019_Dec_07_1007;iat_vr;59.99991599860487;
2;SCHLECHT;negativ;q;0;2;2;1;q;1;1.1645837999967625;001;NSSS01;2019_Dec_07_1007;iat_vr;59.99991599860487;
2;GUT;positiv;p;0;3;3;9;p;1;1.235198099995614;001;NSSS01;2019_Dec_07_1007;iat_vr;59.99991599860487;
2;SCHÄDLICH;negativ;q;0;4;4;3;q;1;0.6793441999980132;001;NSSS01;2019_Dec_07_1007;iat_vr;59.99991599860487;
2;SCHWACH;negativ;q;0;5;5;4;p;0;0.648600799999258;001;NSSS01;2019_Dec_07_1007;iat_vr;59.99991599860487;
2;HERVORRAGEND;positiv;p;0;6;6;7;q;0;1.241194499998528;001;NSSS01;2019_Dec_07_1007;iat_vr;59.99991599860487;
2;POSITIV;positiv;p;0;7;7;8;p;1;0.7464074999952572;001;NSSS01;2019_Dec_07_1007;iat_vr;59.99991599860487;
2;AUSGEZEICHNET;positiv;p;0;8;8;5;p;1;1.2045480999950087;001;NSSS01;2019_Dec_07_1007;iat_vr;59.99991599860487;
2;NEGATIV;negativ;q;0;9;9;2;p;0;1.5978220000033616;001;NSSS01;2019_Dec_07_1007;iat_vr;59.99991599860487;
2;EINWANDFREI;positiv;p;1;0;10;6;q;0;0.513458500005072;001;NSSS01;2019_Dec_07_1007;iat_vr;59.99991599860487;
2;SCHÄDLICH;negativ;q;1;1;11;3;q;1;0.2801051999995252;001;NSSS01;2019_Dec_07_1007;iat_vr;59.99991599860487;
2;AUSGEZEICHNET;positiv;p;1;2;12;5;q;0;0.45961540000280365;001;NSSS01;2019_Dec_07_1007;iat_vr;59.99991599860487;
2;HERVORRAGEND;positiv;p;1;3;13;7;q;0;0.8465724000052433;001;NSSS01;2019_Dec_07_1007;iat_vr;59.99991599860487;
2;SCHWACH;negativ;q;1;4;14;4;p;0;0.4814814999990631;001;NSSS01;2019_Dec_07_1007;iat_vr;59.99991599860487;
2;POSITIV;positiv;p;1;5;15;8;p;1;0.11496740000438876;001;NSSS01;2019_Dec_07_1007;iat_vr;59.99991599860487;
2;NEGATIV;negativ;q;1;6;16;2;p;0;0.06447250000201166;001;NSSS01;2019_Dec_07_1007;iat_vr;59.99991599860487;
2;SCHLIMM;negativ;q;1;7;17;0;p;0;0.012358599997241981;001;NSSS01;2019_Dec_07_1007;iat_vr;59.99991599860487;
2;SCHLECHT;negativ;q;1;8;18;1;p;0;0.4466565999973682;001;NSSS01;2019_Dec_07_1007;iat_vr;59.99991599860487;
2;GUT;positiv;p;1;9;19;9;p;1;0.29932349999580765;001;NSSS01;2019_Dec_07_1007;iat_vr;59.99991599860487;
;;;;;;;;;;;001;NSSS01;2019_Dec_07_1007;iat_vr;59.99991599860487;
3;STADT;Gemacht;p;0;0;0;16;p;1;1.2527776999995694;001;NSSS01;2019_Dec_07_1007;iat_vr;59.99991599860487;
3;LAMPE;Gemacht;p;0;1;1;19;p;1;1.366153299997677;001;NSSS01;2019_Dec_07_1007;iat_vr;59.99991599860487;
3;EINWANDFREI;positiv;p;0;2;2;6;p;1;1.7354354999988573;001;NSSS01;2019_Dec_07_1007;iat_vr;59.99991599860487;
3;SCHÄDLICH;negativ;q;0;3;3;3;q;1;1.1116024000002653;001;NSSS01;2019_Dec_07_1007;iat_vr;59.99991599860487;
3;BAUM;Natur;q;0;4;4;10;q;1;0.8989392000003136;001;NSSS01;2019_Dec_07_1007;iat_vr;59.99991599860487;
3;COMPUTER;Gemacht;p;0;5;5;18;p;1;1.0473830999981146;001;NSSS01;2019_Dec_07_1007;iat_vr;59.99991599860487;
3;GUT;positiv;p;0;6;6;9;p;1;1.0134097000045585;001;NSSS01;2019_Dec_07_1007;iat_vr;59.99991599860487;
3;SCHWACH;negativ;q;0;7;7;4;q;1;0.9354046000007656;001;NSSS01;2019_Dec_07_1007;iat_vr;59.99991599860487;
3;SCHLIMM;negativ;q;0;8;8;0;q;1;0.8020978000058676;001;NSSS01;2019_Dec_07_1007;iat_vr;59.99991599860487;
3;HERVORRAGEND;positiv;p;0;9;9;7;p;1;1.2892603000000236;001;NSSS01;2019_Dec_07_1007;iat_vr;59.99991599860487;
3;SCHLECHT;negativ;q;0;10;10;1;q;1;1.1137922999987495;001;NSSS01;2019_Dec_07_1007;iat_vr;59.99991599860487;
3;AUSGEZEICHNET;positiv;p;0;11;11;5;p;1;1.0782231999983196;001;NSSS01;2019_Dec_07_1007;iat_vr;59.99991599860487;
3;TIER;Natur;q;0;12;12;13;q;1;1.1167921000014758;001;NSSS01;2019_Dec_07_1007;iat_vr;59.99991599860487;
3;NEGATIV;negativ;q;0;13;13;2;q;1;1.1459567999991123;001;NSSS01;2019_Dec_07_1007;iat_vr;59.99991599860487;
3;GEBÄUDE;Gemacht;p;0;14;14;15;p;1;1.8654890000034356;001;NSSS01;2019_Dec_07_1007;iat_vr;59.99991599860487;
3;KLEIDER;Gemacht;p;0;15;15;17;p;1;1.6961479000019608;001;NSSS01;2019_Dec_07_1007;iat_vr;59.99991599860487;
3;POSITIV;positiv;p;0;16;16;8;q;0;2.3140137000009418;001;NSSS01;2019_Dec_07_1007;iat_vr;59.99991599860487;
3;WASSER;Natur;q;0;17;17;11;q;1;1.649482299995725;001;NSSS01;2019_Dec_07_1007;iat_vr;59.99991599860487;
3;STEIN;Natur;q;0;18;18;14;q;1;1.5804554999995162;001;NSSS01;2019_Dec_07_1007;iat_vr;59.99991599860487;
3;BLUME;Natur;q;0;19;19;12;q;1;0.7988573000038741;001;NSSS01;2019_Dec_07_1007;iat_vr;59.99991599860487;
;;;;;;;;;;;001;NSSS01;2019_Dec_07_1007;iat_vr;59.99991599860487;
4;POSITIV;positiv;p;0;0;0;8;p;1;5.535069400000793;001;NSSS01;2019_Dec_07_1007;iat_vr;59.99991599860487;
4;WASSER;Natur;q;0;1;1;11;q;1;0.9483398999946075;001;NSSS01;2019_Dec_07_1007;iat_vr;59.99991599860487;
4;SCHLIMM;negativ;q;0;2;2;0;q;1;0.8980321000053664;001;NSSS01;2019_Dec_07_1007;iat_vr;59.99991599860487;
4;EINWANDFREI;positiv;p;0;3;3;6;p;1;0.9932049999988521;001;NSSS01;2019_Dec_07_1007;iat_vr;59.99991599860487;
4;STADT;Gemacht;p;0;4;4;16;p;1;0.7149325999998837;001;NSSS01;2019_Dec_07_1007;iat_vr;59.99991599860487;
4;KLEIDER;Gemacht;p;0;5;5;17;p;1;1.2803790000034496;001;NSSS01;2019_Dec_07_1007;iat_vr;59.99991599860487;
4;LAMPE;Gemacht;p;0;6;6;19;p;1;0.9809654999990016;001;NSSS01;2019_Dec_07_1007;iat_vr;59.99991599860487;
4;HERVORRAGEND;positiv;p;0;7;7;7;p;1;1.0276111000057426;001;NSSS01;2019_Dec_07_1007;iat_vr;59.99991599860487;
4;GUT;positiv;p;0;8;8;9;p;1;0.7813226000071154;001;NSSS01;2019_Dec_07_1007;iat_vr;59.99991599860487;
4;GEBÄUDE;Gemacht;p;0;9;9;15;p;1;0.762848499995016;001;NSSS01;2019_Dec_07_1007;iat_vr;59.99991599860487;
4;SCHLECHT;negativ;q;0;10;10;1;q;1;0.7317517000046792;001;NSSS01;2019_Dec_07_1007;iat_vr;59.99991599860487;
4;BAUM;Natur;q;0;11;11;10;q;1;0.9488538000005065;001;NSSS01;2019_Dec_07_1007;iat_vr;59.99991599860487;
4;AUSGEZEICHNET;positiv;p;0;12;12;5;p;1;0.8450788999980432;001;NSSS01;2019_Dec_07_1007;iat_vr;59.99991599860487;
4;TIER;Natur;q;0;13;13;13;q;1;0.880520600003365;001;NSSS01;2019_Dec_07_1007;iat_vr;59.99991599860487;
4;SCHWACH;negativ;q;0;14;14;4;q;1;1.978323100003763;001;NSSS01;2019_Dec_07_1007;iat_vr;59.99991599860487;
4;COMPUTER;Gemacht;p;0;15;15;18;p;1;0.9474990000016987;001;NSSS01;2019_Dec_07_1007;iat_vr;59.99991599860487;
4;BLUME;Natur;q;0;16;16;12;q;1;1.8973920999997063;001;NSSS01;2019_Dec_07_1007;iat_vr;59.99991599860487;
4;SCHÄDLICH;negativ;q;0;17;17;3;q;1;2.1000691000008374;001;NSSS01;2019_Dec_07_1007;iat_vr;59.99991599860487;
4;STEIN;Natur;q;0;18;18;14;q;1;2.2526104999997187;001;NSSS01;2019_Dec_07_1007;iat_vr;59.99991599860487;
4;NEGATIV;negativ;q;0;19;19;2;q;1;0.9315065999981016;001;NSSS01;2019_Dec_07_1007;iat_vr;59.99991599860487;
4;STADT;Gemacht;p;1;0;20;16;p;1;0.7316366000013659;001;NSSS01;2019_Dec_07_1007;iat_vr;59.99991599860487;
4;SCHLECHT;negativ;q;1;1;21;1;q;1;1.1630735999933677;001;NSSS01;2019_Dec_07_1007;iat_vr;59.99991599860487;
4;BLUME;Natur;q;1;2;22;12;q;1;0.7961024000032921;001;NSSS01;2019_Dec_07_1007;iat_vr;59.99991599860487;
4;LAMPE;Gemacht;p;1;3;23;19;p;1;0.8187089999992168;001;NSSS01;2019_Dec_07_1007;iat_vr;59.99991599860487;
4;EINWANDFREI;positiv;p;1;4;24;6;p;1;2.644888800001354;001;NSSS01;2019_Dec_07_1007;iat_vr;59.99991599860487;
4;HERVORRAGEND;positiv;p;1;5;25;7;p;1;1.0286011999996845;001;NSSS01;2019_Dec_07_1007;iat_vr;59.99991599860487;
4;COMPUTER;Gemacht;p;1;6;26;18;p;1;0.7144196000008378;001;NSSS01;2019_Dec_07_1007;iat_vr;59.99991599860487;
4;WASSER;Natur;q;1;7;27;11;q;1;0.74778040000092;001;NSSS01;2019_Dec_07_1007;iat_vr;59.99991599860487;
4;POSITIV;positiv;p;1;8;28;8;p;1;0.7938651000004029;001;NSSS01;2019_Dec_07_1007;iat_vr;59.99991599860487;
4;GEBÄUDE;Gemacht;p;1;9;29;15;p;1;0.7959085999973468;001;NSSS01;2019_Dec_07_1007;iat_vr;59.99991599860487;
4;STEIN;Natur;q;1;10;30;14;p;0;0.781834199995501;001;NSSS01;2019_Dec_07_1007;iat_vr;59.99991599860487;
4;SCHLIMM;negativ;q;1;11;31;0;q;1;3.2642178000023705;001;NSSS01;2019_Dec_07_1007;iat_vr;59.99991599860487;
4;TIER;Natur;q;1;12;32;13;q;1;0.9814345000049798;001;NSSS01;2019_Dec_07_1007;iat_vr;59.99991599860487;
4;SCHWACH;negativ;q;1;13;33;4;q;1;1.5804490000009537;001;NSSS01;2019_Dec_07_1007;iat_vr;59.99991599860487;
4;GUT;positiv;p;1;14;34;9;p;1;1.0022341000003507;001;NSSS01;2019_Dec_07_1007;iat_vr;59.99991599860487;
4;SCHÄDLICH;negativ;q;1;15;35;3;q;1;0.8356693999958225;001;NSSS01;2019_Dec_07_1007;iat_vr;59.99991599860487;
4;NEGATIV;negativ;q;1;16;36;2;q;1;0.7624378000036813;001;NSSS01;2019_Dec_07_1007;iat_vr;59.99991599860487;
4;KLEIDER;Gemacht;p;1;17;37;17;p;1;0.7938664999965113;001;NSSS01;2019_Dec_07_1007;iat_vr;59.99991599860487;
4;BAUM;Natur;q;1;18;38;10;q;1;1.048991700001352;001;NSSS01;2019_Dec_07_1007;iat_vr;59.99991599860487;
4;AUSGEZEICHNET;positiv;p;1;19;39;5;p;1;1.0788911000054213;001;NSSS01;2019_Dec_07_1007;iat_vr;59.99991599860487;
;;;;;;;;;;;001;NSSS01;2019_Dec_07_1007;iat_vr;59.99991599860487;
5;LAMPE;Gemacht;q;0;0;0;9;q;1;1.185127000004286;001;NSSS01;2019_Dec_07_1007;iat_vr;59.99991599860487;
5;BAUM;Natur;p;0;1;1;0;p;1;0.7820920000012848;001;NSSS01;2019_Dec_07_1007;iat_vr;59.99991599860487;
5;WASSER;Natur;p;0;2;2;1;p;1;1.3654230999964057;001;NSSS01;2019_Dec_07_1007;iat_vr;59.99991599860487;
5;BLUME;Natur;p;0;3;3;2;p;1;1.468551899997692;001;NSSS01;2019_Dec_07_1007;iat_vr;59.99991599860487;
5;GEBÄUDE;Gemacht;q;0;4;4;5;q;1;0.8479999000046519;001;NSSS01;2019_Dec_07_1007;iat_vr;59.99991599860487;
5;COMPUTER;Gemacht;q;0;5;5;8;q;1;1.7449625000008382;001;NSSS01;2019_Dec_07_1007;iat_vr;59.99991599860487;
5;KLEIDER;Gemacht;q;0;6;6;7;q;1;0.7353532999986783;001;NSSS01;2019_Dec_07_1007;iat_vr;59.99991599860487;
5;TIER;Natur;p;0;7;7;3;p;1;1.0323810999980196;001;NSSS01;2019_Dec_07_1007;iat_vr;59.99991599860487;
5;STADT;Gemacht;q;0;8;8;6;q;1;0.8189637000032235;001;NSSS01;2019_Dec_07_1007;iat_vr;59.99991599860487;
5;STEIN;Natur;p;0;9;9;4;p;1;0.9633829000013066;001;NSSS01;2019_Dec_07_1007;iat_vr;59.99991599860487;
5;LAMPE;Gemacht;q;1;0;10;9;q;1;1.2183760999978404;001;NSSS01;2019_Dec_07_1007;iat_vr;59.99991599860487;
5;KLEIDER;Gemacht;q;1;1;11;7;q;1;0.783428399998229;001;NSSS01;2019_Dec_07_1007;iat_vr;59.99991599860487;
5;COMPUTER;Gemacht;q;1;2;12;8;q;1;0.7306544000020949;001;NSSS01;2019_Dec_07_1007;iat_vr;59.99991599860487;
5;STADT;Gemacht;q;1;3;13;6;q;1;0.6818321000027936;001;NSSS01;2019_Dec_07_1007;iat_vr;59.99991599860487;
5;WASSER;Natur;p;1;4;14;1;p;1;0.66482299999916;001;NSSS01;2019_Dec_07_1007;iat_vr;59.99991599860487;
5;GEBÄUDE;Gemacht;q;1;5;15;5;q;1;0.7466480000002775;001;NSSS01;2019_Dec_07_1007;iat_vr;59.99991599860487;
5;TIER;Natur;p;1;6;16;3;p;1;0.6993468000000576;001;NSSS01;2019_Dec_07_1007;iat_vr;59.99991599860487;
5;BAUM;Natur;p;1;7;17;0;p;1;1.1982151000047452;001;NSSS01;2019_Dec_07_1007;iat_vr;59.99991599860487;
5;BLUME;Natur;p;1;8;18;2;p;1;0.7985869999974966;001;NSSS01;2019_Dec_07_1007;iat_vr;59.99991599860487;
5;STEIN;Natur;p;1;9;19;4;p;1;1.1972925000009127;001;NSSS01;2019_Dec_07_1007;iat_vr;59.99991599860487;
;;;;;;;;;;;001;NSSS01;2019_Dec_07_1007;iat_vr;59.99991599860487;
6;BLUME;Natur;p;0;0;0;2;p;1;2.4373954000038793;001;NSSS01;2019_Dec_07_1007;iat_vr;59.99991599860487;
6;STADT;Gemacht;q;0;1;1;6;q;1;0.8646634999968228;001;NSSS01;2019_Dec_07_1007;iat_vr;59.99991599860487;
6;POSITIV;positiv;p;0;2;2;18;p;1;1.8513106999962474;001;NSSS01;2019_Dec_07_1007;iat_vr;59.99991599860487;
6;STEIN;Natur;p;0;3;3;4;p;1;2.364782799995737;001;NSSS01;2019_Dec_07_1007;iat_vr;59.99991599860487;
6;GEBÄUDE;Gemacht;q;0;4;4;5;q;1;1.2180396999974619;001;NSSS01;2019_Dec_07_1007;iat_vr;59.99991599860487;
6;AUSGEZEICHNET;positiv;p;0;5;5;15;p;1;0.9783798999997089;001;NSSS01;2019_Dec_07_1007;iat_vr;59.99991599860487;
6;NEGATIV;negativ;q;0;6;6;12;q;1;1.9135631000026478;001;NSSS01;2019_Dec_07_1007;iat_vr;59.99991599860487;
6;SCHÄDLICH;negativ;q;0;7;7;13;q;1;0.8634832999960054;001;NSSS01;2019_Dec_07_1007;iat_vr;59.99991599860487;
6;BAUM;Natur;p;0;8;8;0;q;0;0.9689247999995132;001;NSSS01;2019_Dec_07_1007;iat_vr;59.99991599860487;
6;SCHLECHT;negativ;q;0;9;9;11;p;0;0.9466709999978775;001;NSSS01;2019_Dec_07_1007;iat_vr;59.99991599860487;
6;WASSER;Natur;p;0;10;10;1;p;1;1.0311602000001585;001;NSSS01;2019_Dec_07_1007;iat_vr;59.99991599860487;
6;SCHWACH;negativ;q;0;11;11;14;q;1;0.9479191999998875;001;NSSS01;2019_Dec_07_1007;iat_vr;59.99991599860487;
6;LAMPE;Gemacht;q;0;12;12;9;q;1;1.0645908000005875;001;NSSS01;2019_Dec_07_1007;iat_vr;59.99991599860487;
6;HERVORRAGEND;positiv;p;0;13;13;17;p;1;0.9618210999979055;001;NSSS01;2019_Dec_07_1007;iat_vr;59.99991599860487;
6;TIER;Natur;p;0;14;14;3;p;1;0.7824256000021705;001;NSSS01;2019_Dec_07_1007;iat_vr;59.99991599860487;
6;SCHLIMM;negativ;q;0;15;15;10;q;1;1.3776032000023406;001;NSSS01;2019_Dec_07_1007;iat_vr;59.99991599860487;
6;KLEIDER;Gemacht;q;0;16;16;7;q;1;1.1800019000002067;001;NSSS01;2019_Dec_07_1007;iat_vr;59.99991599860487;
6;GUT;positiv;p;0;17;17;19;p;1;1.2160096000006888;001;NSSS01;2019_Dec_07_1007;iat_vr;59.99991599860487;
6;COMPUTER;Gemacht;q;0;18;18;8;q;1;0.9292597000021487;001;NSSS01;2019_Dec_07_1007;iat_vr;59.99991599860487;
6;EINWANDFREI;positiv;p;0;19;19;16;p;1;2.658667700001388;001;NSSS01;2019_Dec_07_1007;iat_vr;59.99991599860487;
;;;;;;;;;;;001;NSSS01;2019_Dec_07_1007;iat_vr;59.99991599860487;
7;HERVORRAGEND;positiv;p;0;0;0;17;p;1;2.378745699999854;001;NSSS01;2019_Dec_07_1007;iat_vr;59.99991599860487;
7;NEGATIV;negativ;q;0;1;1;12;q;1;0.9303589999981341;001;NSSS01;2019_Dec_07_1007;iat_vr;59.99991599860487;
7;SCHWACH;negativ;q;0;2;2;14;q;1;0.9354520999986562;001;NSSS01;2019_Dec_07_1007;iat_vr;59.99991599860487;
7;LAMPE;Gemacht;q;0;3;3;9;q;1;0.865187600000354;001;NSSS01;2019_Dec_07_1007;iat_vr;59.99991599860487;
7;GUT;positiv;p;0;4;4;19;p;1;0.9489371999952709;001;NSSS01;2019_Dec_07_1007;iat_vr;59.99991599860487;
7;KLEIDER;Gemacht;q;0;5;5;7;q;1;0.865397399997164;001;NSSS01;2019_Dec_07_1007;iat_vr;59.99991599860487;
7;WASSER;Natur;p;0;6;6;1;p;1;0.9320835000035004;001;NSSS01;2019_Dec_07_1007;iat_vr;59.99991599860487;
7;AUSGEZEICHNET;positiv;p;0;7;7;15;p;1;3.061576000000059;001;NSSS01;2019_Dec_07_1007;iat_vr;59.99991599860487;
7;SCHÄDLICH;negativ;q;0;8;8;13;q;1;0.9810070999956224;001;NSSS01;2019_Dec_07_1007;iat_vr;59.99991599860487;
7;SCHLECHT;negativ;q;0;9;9;11;q;1;0.9940102000036859;001;NSSS01;2019_Dec_07_1007;iat_vr;59.99991599860487;
7;STEIN;Natur;p;0;10;10;4;q;0;1.0447218999979668;001;NSSS01;2019_Dec_07_1007;iat_vr;59.99991599860487;
7;BLUME;Natur;p;0;11;11;2;p;1;1.2684927999944193;001;NSSS01;2019_Dec_07_1007;iat_vr;59.99991599860487;
7;COMPUTER;Gemacht;q;0;12;12;8;q;1;0.9458622999954969;001;NSSS01;2019_Dec_07_1007;iat_vr;59.99991599860487;
7;EINWANDFREI;positiv;p;0;13;13;16;p;1;1.4955496999973548;001;NSSS01;2019_Dec_07_1007;iat_vr;59.99991599860487;
7;GEBÄUDE;Gemacht;q;0;14;14;5;q;1;1.1623204999996233;001;NSSS01;2019_Dec_07_1007;iat_vr;59.99991599860487;
7;STADT;Gemacht;q;0;15;15;6;q;1;0.7641342999995686;001;NSSS01;2019_Dec_07_1007;iat_vr;59.99991599860487;
7;SCHLIMM;negativ;q;0;16;16;10;q;1;2.6946670999968774;001;NSSS01;2019_Dec_07_1007;iat_vr;59.99991599860487;
7;POSITIV;positiv;p;0;17;17;18;p;1;1.8143392999991192;001;NSSS01;2019_Dec_07_1007;iat_vr;59.99991599860487;
7;TIER;Natur;p;0;18;18;3;p;1;0.7142928999965079;001;NSSS01;2019_Dec_07_1007;iat_vr;59.99991599860487;
7;BAUM;Natur;p;0;19;19;0;p;1;0.6823635000037029;001;NSSS01;2019_Dec_07_1007;iat_vr;59.99991599860487;
7;BAUM;Natur;p;1;0;20;0;p;1;0.6009603999991668;001;NSSS01;2019_Dec_07_1007;iat_vr;59.99991599860487;
7;STEIN;Natur;p;1;1;21;4;p;1;0.6482432999982848;001;NSSS01;2019_Dec_07_1007;iat_vr;59.99991599860487;
7;LAMPE;Gemacht;q;1;2;22;9;q;1;1.131649800001469;001;NSSS01;2019_Dec_07_1007;iat_vr;59.99991599860487;
7;EINWANDFREI;positiv;p;1;3;23;16;p;1;3.1103871000013896;001;NSSS01;2019_Dec_07_1007;iat_vr;59.99991599860487;
7;GUT;positiv;p;1;4;24;19;p;1;0.8824060000042664;001;NSSS01;2019_Dec_07_1007;iat_vr;59.99991599860487;
7;GEBÄUDE;Gemacht;q;1;5;25;5;p;0;1.5478346999952919;001;NSSS01;2019_Dec_07_1007;iat_vr;59.99991599860487;
7;SCHLIMM;negativ;q;1;6;26;10;q;1;2.414079000001948;001;NSSS01;2019_Dec_07_1007;iat_vr;59.99991599860487;
7;SCHÄDLICH;negativ;q;1;7;27;13;q;1;0.7796794999958365;001;NSSS01;2019_Dec_07_1007;iat_vr;59.99991599860487;
7;BLUME;Natur;p;1;8;28;2;p;1;0.9287684000009904;001;NSSS01;2019_Dec_07_1007;iat_vr;59.99991599860487;
7;STADT;Gemacht;q;1;9;29;6;q;1;0.9646359000034863;001;NSSS01;2019_Dec_07_1007;iat_vr;59.99991599860487;
7;POSITIV;positiv;p;1;10;30;18;p;1;1.7276112000035937;001;NSSS01;2019_Dec_07_1007;iat_vr;59.99991599860487;
7;HERVORRAGEND;positiv;p;1;11;31;17;p;1;2.694429899995157;001;NSSS01;2019_Dec_07_1007;iat_vr;59.99991599860487;
7;WASSER;Natur;p;1;12;32;1;q;0;1.780723300005775;001;NSSS01;2019_Dec_07_1007;iat_vr;59.99991599860487;
7;SCHLECHT;negativ;q;1;13;33;11;q;1;3.113704499999585;001;NSSS01;2019_Dec_07_1007;iat_vr;59.99991599860487;
7;NEGATIV;negativ;q;1;14;34;12;q;1;0.780443000003288;001;NSSS01;2019_Dec_07_1007;iat_vr;59.99991599860487;
7;KLEIDER;Gemacht;q;1;15;35;7;q;1;1.030787900002906;001;NSSS01;2019_Dec_07_1007;iat_vr;59.99991599860487;
7;SCHWACH;negativ;q;1;16;36;14;q;1;0.8476467000000412;001;NSSS01;2019_Dec_07_1007;iat_vr;59.99991599860487;
7;AUSGEZEICHNET;positiv;p;1;17;37;15;p;1;1.0283927999989828;001;NSSS01;2019_Dec_07_1007;iat_vr;59.99991599860487;
7;COMPUTER;Gemacht;q;1;18;38;8;q;1;0.7966222000031848;001;NSSS01;2019_Dec_07_1007;iat_vr;59.99991599860487;
7;TIER;Natur;p;1;19;39;3;p;1;0.9316028999965056;001;NSSS01;2019_Dec_07_1007;iat_vr;59.99991599860487;
;;;;;;;;;;;001;NSSS01;2019_Dec_07_1007;iat_vr;59.99991599860487;
