Block;Word;Category;CorrResp;trials.thisRepN;trials.thisTrialN;trials.thisN;trials.thisIndex;key_resp_2.keys;key_resp_2.corr;key_resp_2.rt;session;participant;date;expName;frameRate;
1;WASSER;Natur;q;0;0;0;1;q;1;0.9610112999998819;002;NSVS96;2019_Dec_05_1112;iat_vr;61.08373541701175;
1;COMPUTER;Gemacht;p;0;1;1;8;p;1;0.5836346000000958;002;NSVS96;2019_Dec_05_1112;iat_vr;61.08373541701175;
1;BAUM;Natur;q;0;2;2;0;q;1;0.6342603999999028;002;NSVS96;2019_Dec_05_1112;iat_vr;61.08373541701175;
1;TIER;Natur;q;0;3;3;3;q;1;0.6117345999998633;002;NSVS96;2019_Dec_05_1112;iat_vr;61.08373541701175;
1;KLEIDER;Gemacht;p;0;4;4;7;p;1;0.585544599999821;002;NSVS96;2019_Dec_05_1112;iat_vr;61.08373541701175;
1;BLUME;Natur;q;0;5;5;2;q;1;0.5650344999999106;002;NSVS96;2019_Dec_05_1112;iat_vr;61.08373541701175;
1;LAMPE;Gemacht;p;0;6;6;9;p;1;0.6797622000001411;002;NSVS96;2019_Dec_05_1112;iat_vr;61.08373541701175;
1;GEBÄUDE;Gemacht;p;0;7;7;5;p;1;0.5856377999998585;002;NSVS96;2019_Dec_05_1112;iat_vr;61.08373541701175;
1;STEIN;Natur;q;0;8;8;4;q;1;0.5740422000001217;002;NSVS96;2019_Dec_05_1112;iat_vr;61.08373541701175;
1;STADT;Gemacht;p;0;9;9;6;p;1;0.5982389999999214;002;NSVS96;2019_Dec_05_1112;iat_vr;61.08373541701175;
1;TIER;Natur;q;1;0;10;3;q;1;0.6844689000001836;002;NSVS96;2019_Dec_05_1112;iat_vr;61.08373541701175;
1;BLUME;Natur;q;1;1;11;2;q;1;0.6189081999998507;002;NSVS96;2019_Dec_05_1112;iat_vr;61.08373541701175;
1;WASSER;Natur;q;1;2;12;1;q;1;0.5464905999999701;002;NSVS96;2019_Dec_05_1112;iat_vr;61.08373541701175;
1;BAUM;Natur;q;1;3;13;0;q;1;0.5662907999999334;002;NSVS96;2019_Dec_05_1112;iat_vr;61.08373541701175;
1;KLEIDER;Gemacht;p;1;4;14;7;p;1;0.6182871999999406;002;NSVS96;2019_Dec_05_1112;iat_vr;61.08373541701175;
1;STADT;Gemacht;p;1;5;15;6;p;1;0.5965280000000348;002;NSVS96;2019_Dec_05_1112;iat_vr;61.08373541701175;
1;COMPUTER;Gemacht;p;1;6;16;8;p;1;0.6334940000001552;002;NSVS96;2019_Dec_05_1112;iat_vr;61.08373541701175;
1;LAMPE;Gemacht;p;1;7;17;9;p;1;0.6023695999999745;002;NSVS96;2019_Dec_05_1112;iat_vr;61.08373541701175;
1;GEBÄUDE;Gemacht;p;1;8;18;5;p;1;0.5177679999999327;002;NSVS96;2019_Dec_05_1112;iat_vr;61.08373541701175;
1;STEIN;Natur;q;1;9;19;4;q;1;0.5476837999999589;002;NSVS96;2019_Dec_05_1112;iat_vr;61.08373541701175;
;;;;;;;;;;;002;NSVS96;2019_Dec_05_1112;iat_vr;61.08373541701175;
2;SCHLECHT;negativ;q;0;0;0;1;q;1;0.6089713000001211;002;NSVS96;2019_Dec_05_1112;iat_vr;61.08373541701175;
2;NEGATIV;negativ;q;0;1;1;2;q;1;0.43115929999999025;002;NSVS96;2019_Dec_05_1112;iat_vr;61.08373541701175;
2;SCHLIMM;negativ;q;0;2;2;0;q;1;0.45051439999997456;002;NSVS96;2019_Dec_05_1112;iat_vr;61.08373541701175;
2;AUSGEZEICHNET;positiv;p;0;3;3;5;p;1;0.5117956000001413;002;NSVS96;2019_Dec_05_1112;iat_vr;61.08373541701175;
2;EINWANDFREI;positiv;p;0;4;4;6;p;1;0.45858620000012706;002;NSVS96;2019_Dec_05_1112;iat_vr;61.08373541701175;
2;POSITIV;positiv;p;0;5;5;8;p;1;0.46347949999994853;002;NSVS96;2019_Dec_05_1112;iat_vr;61.08373541701175;
2;GUT;positiv;p;0;6;6;9;p;1;0.4856203999997888;002;NSVS96;2019_Dec_05_1112;iat_vr;61.08373541701175;
2;HERVORRAGEND;positiv;p;0;7;7;7;p;1;0.46672090000015487;002;NSVS96;2019_Dec_05_1112;iat_vr;61.08373541701175;
2;SCHWACH;negativ;q;0;8;8;4;q;1;0.5294394000000011;002;NSVS96;2019_Dec_05_1112;iat_vr;61.08373541701175;
2;SCHÄDLICH;negativ;q;0;9;9;3;q;1;0.5005628999999772;002;NSVS96;2019_Dec_05_1112;iat_vr;61.08373541701175;
2;AUSGEZEICHNET;positiv;p;1;0;10;5;p;1;0.4939730999999483;002;NSVS96;2019_Dec_05_1112;iat_vr;61.08373541701175;
2;SCHLECHT;negativ;q;1;1;11;1;q;1;0.6017686999998659;002;NSVS96;2019_Dec_05_1112;iat_vr;61.08373541701175;
2;NEGATIV;negativ;q;1;2;12;2;q;1;0.5183835000000272;002;NSVS96;2019_Dec_05_1112;iat_vr;61.08373541701175;
2;SCHWACH;negativ;q;1;3;13;4;q;1;0.510123700000122;002;NSVS96;2019_Dec_05_1112;iat_vr;61.08373541701175;
2;EINWANDFREI;positiv;p;1;4;14;6;p;1;0.680136199999879;002;NSVS96;2019_Dec_05_1112;iat_vr;61.08373541701175;
2;GUT;positiv;p;1;5;15;9;p;1;0.5670477000001029;002;NSVS96;2019_Dec_05_1112;iat_vr;61.08373541701175;
2;SCHLIMM;negativ;q;1;6;16;0;q;1;0.5488258000000314;002;NSVS96;2019_Dec_05_1112;iat_vr;61.08373541701175;
2;HERVORRAGEND;positiv;p;1;7;17;7;p;1;0.5943561999999929;002;NSVS96;2019_Dec_05_1112;iat_vr;61.08373541701175;
2;SCHÄDLICH;negativ;q;1;8;18;3;q;1;0.6020753000000241;002;NSVS96;2019_Dec_05_1112;iat_vr;61.08373541701175;
2;POSITIV;positiv;p;1;9;19;8;p;1;0.4846895000000586;002;NSVS96;2019_Dec_05_1112;iat_vr;61.08373541701175;
;;;;;;;;;;;002;NSVS96;2019_Dec_05_1112;iat_vr;61.08373541701175;
3;SCHLIMM;negativ;q;0;0;0;0;q;1;0.7742900000000645;002;NSVS96;2019_Dec_05_1112;iat_vr;61.08373541701175;
3;BAUM;Natur;q;0;1;1;10;q;1;0.5505032999999457;002;NSVS96;2019_Dec_05_1112;iat_vr;61.08373541701175;
3;TIER;Natur;q;0;2;2;13;q;1;0.551149500000065;002;NSVS96;2019_Dec_05_1112;iat_vr;61.08373541701175;
3;STADT;Gemacht;p;0;3;3;16;q;0;0.43409489999999096;002;NSVS96;2019_Dec_05_1112;iat_vr;61.08373541701175;
3;STEIN;Natur;q;0;4;4;14;p;0;0.6990471999999954;002;NSVS96;2019_Dec_05_1112;iat_vr;61.08373541701175;
3;WASSER;Natur;q;0;5;5;11;q;1;0.9780393000000913;002;NSVS96;2019_Dec_05_1112;iat_vr;61.08373541701175;
3;GUT;positiv;p;0;6;6;9;p;1;0.6482850999998391;002;NSVS96;2019_Dec_05_1112;iat_vr;61.08373541701175;
3;EINWANDFREI;positiv;p;0;7;7;6;p;1;0.5174557999998797;002;NSVS96;2019_Dec_05_1112;iat_vr;61.08373541701175;
3;SCHLECHT;negativ;q;0;8;8;1;q;1;0.5811914999999317;002;NSVS96;2019_Dec_05_1112;iat_vr;61.08373541701175;
3;AUSGEZEICHNET;positiv;p;0;9;9;5;p;1;0.8773773000000347;002;NSVS96;2019_Dec_05_1112;iat_vr;61.08373541701175;
3;POSITIV;positiv;p;0;10;10;8;p;1;0.5301058000000012;002;NSVS96;2019_Dec_05_1112;iat_vr;61.08373541701175;
3;LAMPE;Gemacht;p;0;11;11;19;p;1;0.733952600000066;002;NSVS96;2019_Dec_05_1112;iat_vr;61.08373541701175;
3;NEGATIV;negativ;q;0;12;12;2;q;1;0.6358096999999816;002;NSVS96;2019_Dec_05_1112;iat_vr;61.08373541701175;
3;SCHWACH;negativ;q;0;13;13;4;q;1;0.49692750000008346;002;NSVS96;2019_Dec_05_1112;iat_vr;61.08373541701175;
3;BLUME;Natur;q;0;14;14;12;q;1;1.41816730000005;002;NSVS96;2019_Dec_05_1112;iat_vr;61.08373541701175;
3;HERVORRAGEND;positiv;p;0;15;15;7;p;1;0.7598123000000214;002;NSVS96;2019_Dec_05_1112;iat_vr;61.08373541701175;
3;GEBÄUDE;Gemacht;p;0;16;16;15;p;1;0.8144821999999294;002;NSVS96;2019_Dec_05_1112;iat_vr;61.08373541701175;
3;SCHÄDLICH;negativ;q;0;17;17;3;q;1;0.6607824000000164;002;NSVS96;2019_Dec_05_1112;iat_vr;61.08373541701175;
3;COMPUTER;Gemacht;p;0;18;18;18;p;1;0.6282676999999239;002;NSVS96;2019_Dec_05_1112;iat_vr;61.08373541701175;
3;KLEIDER;Gemacht;p;0;19;19;17;p;1;0.9607161999999789;002;NSVS96;2019_Dec_05_1112;iat_vr;61.08373541701175;
;;;;;;;;;;;002;NSVS96;2019_Dec_05_1112;iat_vr;61.08373541701175;
4;SCHLIMM;negativ;q;0;0;0;0;q;1;0.6803103999998257;002;NSVS96;2019_Dec_05_1112;iat_vr;61.08373541701175;
4;POSITIV;positiv;p;0;1;1;8;p;1;0.5681801000000632;002;NSVS96;2019_Dec_05_1112;iat_vr;61.08373541701175;
4;GEBÄUDE;Gemacht;p;0;2;2;15;p;1;0.5904031000000032;002;NSVS96;2019_Dec_05_1112;iat_vr;61.08373541701175;
4;STEIN;Natur;q;0;3;3;14;q;1;0.6024618999999802;002;NSVS96;2019_Dec_05_1112;iat_vr;61.08373541701175;
4;BLUME;Natur;q;0;4;4;12;q;1;0.5971578999999565;002;NSVS96;2019_Dec_05_1112;iat_vr;61.08373541701175;
4;STADT;Gemacht;p;0;5;5;16;p;1;0.6997662999999648;002;NSVS96;2019_Dec_05_1112;iat_vr;61.08373541701175;
4;NEGATIV;negativ;q;0;6;6;2;q;1;0.563499899999897;002;NSVS96;2019_Dec_05_1112;iat_vr;61.08373541701175;
4;SCHÄDLICH;negativ;q;0;7;7;3;q;1;0.6803840000000037;002;NSVS96;2019_Dec_05_1112;iat_vr;61.08373541701175;
4;LAMPE;Gemacht;p;0;8;8;19;p;1;0.6313522000000376;002;NSVS96;2019_Dec_05_1112;iat_vr;61.08373541701175;
4;GUT;positiv;p;0;9;9;9;p;1;0.5689122999999654;002;NSVS96;2019_Dec_05_1112;iat_vr;61.08373541701175;
4;HERVORRAGEND;positiv;p;0;10;10;7;p;1;0.5869920000000093;002;NSVS96;2019_Dec_05_1112;iat_vr;61.08373541701175;
4;SCHWACH;negativ;q;0;11;11;4;q;1;0.7131712000000334;002;NSVS96;2019_Dec_05_1112;iat_vr;61.08373541701175;
4;SCHLECHT;negativ;q;0;12;12;1;q;1;0.5488425999999436;002;NSVS96;2019_Dec_05_1112;iat_vr;61.08373541701175;
4;COMPUTER;Gemacht;p;0;13;13;18;p;1;0.59671400000002;002;NSVS96;2019_Dec_05_1112;iat_vr;61.08373541701175;
4;EINWANDFREI;positiv;p;0;14;14;6;p;1;0.6476984000000812;002;NSVS96;2019_Dec_05_1112;iat_vr;61.08373541701175;
4;TIER;Natur;q;0;15;15;13;q;1;0.6685984999999164;002;NSVS96;2019_Dec_05_1112;iat_vr;61.08373541701175;
4;AUSGEZEICHNET;positiv;p;0;16;16;5;p;1;0.9142980999999963;002;NSVS96;2019_Dec_05_1112;iat_vr;61.08373541701175;
4;KLEIDER;Gemacht;p;0;17;17;17;p;1;0.6502364000000398;002;NSVS96;2019_Dec_05_1112;iat_vr;61.08373541701175;
4;BAUM;Natur;q;0;18;18;10;q;1;0.8855177999998887;002;NSVS96;2019_Dec_05_1112;iat_vr;61.08373541701175;
4;WASSER;Natur;q;0;19;19;11;q;1;0.5519792999998572;002;NSVS96;2019_Dec_05_1112;iat_vr;61.08373541701175;
4;STEIN;Natur;q;1;0;20;14;q;1;0.747162200000048;002;NSVS96;2019_Dec_05_1112;iat_vr;61.08373541701175;
4;SCHÄDLICH;negativ;q;1;1;21;3;q;1;0.6499527999999373;002;NSVS96;2019_Dec_05_1112;iat_vr;61.08373541701175;
4;BLUME;Natur;q;1;2;22;12;p;0;0.8183097999999518;002;NSVS96;2019_Dec_05_1112;iat_vr;61.08373541701175;
4;SCHLIMM;negativ;q;1;3;23;0;q;1;0.833245799999986;002;NSVS96;2019_Dec_05_1112;iat_vr;61.08373541701175;
4;COMPUTER;Gemacht;p;1;4;24;18;p;1;0.6965808999998444;002;NSVS96;2019_Dec_05_1112;iat_vr;61.08373541701175;
4;STADT;Gemacht;p;1;5;25;16;p;1;0.7853451999999379;002;NSVS96;2019_Dec_05_1112;iat_vr;61.08373541701175;
4;EINWANDFREI;positiv;p;1;6;26;6;p;1;0.5767464999998992;002;NSVS96;2019_Dec_05_1112;iat_vr;61.08373541701175;
4;KLEIDER;Gemacht;p;1;7;27;17;p;1;0.6485794000000169;002;NSVS96;2019_Dec_05_1112;iat_vr;61.08373541701175;
4;WASSER;Natur;q;1;8;28;11;p;0;0.6148513000000548;002;NSVS96;2019_Dec_05_1112;iat_vr;61.08373541701175;
4;GEBÄUDE;Gemacht;p;1;9;29;15;p;1;0.662403999999924;002;NSVS96;2019_Dec_05_1112;iat_vr;61.08373541701175;
4;NEGATIV;negativ;q;1;10;30;2;q;1;0.5518561999999747;002;NSVS96;2019_Dec_05_1112;iat_vr;61.08373541701175;
4;GUT;positiv;p;1;11;31;9;p;1;0.666675499999883;002;NSVS96;2019_Dec_05_1112;iat_vr;61.08373541701175;
4;POSITIV;positiv;p;1;12;32;8;p;1;0.5787315000000035;002;NSVS96;2019_Dec_05_1112;iat_vr;61.08373541701175;
4;HERVORRAGEND;positiv;p;1;13;33;7;p;1;0.5760969000000387;002;NSVS96;2019_Dec_05_1112;iat_vr;61.08373541701175;
4;TIER;Natur;q;1;14;34;13;q;1;0.6191838999998254;002;NSVS96;2019_Dec_05_1112;iat_vr;61.08373541701175;
4;AUSGEZEICHNET;positiv;p;1;15;35;5;p;1;0.6774182999999994;002;NSVS96;2019_Dec_05_1112;iat_vr;61.08373541701175;
4;BAUM;Natur;q;1;16;36;10;q;1;0.6163289999999506;002;NSVS96;2019_Dec_05_1112;iat_vr;61.08373541701175;
4;SCHLECHT;negativ;q;1;17;37;1;q;1;0.602299099999982;002;NSVS96;2019_Dec_05_1112;iat_vr;61.08373541701175;
4;SCHWACH;negativ;q;1;18;38;4;q;1;0.46283599999992475;002;NSVS96;2019_Dec_05_1112;iat_vr;61.08373541701175;
4;LAMPE;Gemacht;p;1;19;39;19;p;1;0.7686619000000974;002;NSVS96;2019_Dec_05_1112;iat_vr;61.08373541701175;
;;;;;;;;;;;002;NSVS96;2019_Dec_05_1112;iat_vr;61.08373541701175;
5;BLUME;Natur;p;0;0;0;2;p;1;1.3418543000000227;002;NSVS96;2019_Dec_05_1112;iat_vr;61.08373541701175;
5;GEBÄUDE;Gemacht;q;0;1;1;5;q;1;0.5964420000000246;002;NSVS96;2019_Dec_05_1112;iat_vr;61.08373541701175;
5;TIER;Natur;p;0;2;2;3;p;1;0.767000600000074;002;NSVS96;2019_Dec_05_1112;iat_vr;61.08373541701175;
5;STEIN;Natur;p;0;3;3;4;p;1;1.0153427000000192;002;NSVS96;2019_Dec_05_1112;iat_vr;61.08373541701175;
5;LAMPE;Gemacht;q;0;4;4;9;q;1;0.7509079999999813;002;NSVS96;2019_Dec_05_1112;iat_vr;61.08373541701175;
5;COMPUTER;Gemacht;q;0;5;5;8;q;1;0.601283100000046;002;NSVS96;2019_Dec_05_1112;iat_vr;61.08373541701175;
5;STADT;Gemacht;q;0;6;6;6;q;1;0.5509199999999055;002;NSVS96;2019_Dec_05_1112;iat_vr;61.08373541701175;
5;KLEIDER;Gemacht;q;0;7;7;7;q;1;0.6485029999998915;002;NSVS96;2019_Dec_05_1112;iat_vr;61.08373541701175;
5;BAUM;Natur;p;0;8;8;0;p;1;0.5489823999998862;002;NSVS96;2019_Dec_05_1112;iat_vr;61.08373541701175;
5;WASSER;Natur;p;0;9;9;1;p;1;0.9125200000000859;002;NSVS96;2019_Dec_05_1112;iat_vr;61.08373541701175;
5;WASSER;Natur;p;1;0;10;1;p;1;0.433363399999962;002;NSVS96;2019_Dec_05_1112;iat_vr;61.08373541701175;
5;STEIN;Natur;p;1;1;11;4;p;1;0.8023725000000468;002;NSVS96;2019_Dec_05_1112;iat_vr;61.08373541701175;
5;LAMPE;Gemacht;q;1;2;12;9;q;1;0.6959988999999496;002;NSVS96;2019_Dec_05_1112;iat_vr;61.08373541701175;
5;KLEIDER;Gemacht;q;1;3;13;7;q;1;0.568860099999938;002;NSVS96;2019_Dec_05_1112;iat_vr;61.08373541701175;
5;BAUM;Natur;p;1;4;14;0;p;1;0.5158825000000888;002;NSVS96;2019_Dec_05_1112;iat_vr;61.08373541701175;
5;STADT;Gemacht;q;1;5;15;6;q;1;0.5135040000000117;002;NSVS96;2019_Dec_05_1112;iat_vr;61.08373541701175;
5;GEBÄUDE;Gemacht;q;1;6;16;5;q;1;0.59895860000006;002;NSVS96;2019_Dec_05_1112;iat_vr;61.08373541701175;
5;COMPUTER;Gemacht;q;1;7;17;8;q;1;0.551854800000001;002;NSVS96;2019_Dec_05_1112;iat_vr;61.08373541701175;
5;TIER;Natur;p;1;8;18;3;p;1;0.5845671000001857;002;NSVS96;2019_Dec_05_1112;iat_vr;61.08373541701175;
5;BLUME;Natur;p;1;9;19;2;p;1;0.5317486000001281;002;NSVS96;2019_Dec_05_1112;iat_vr;61.08373541701175;
;;;;;;;;;;;002;NSVS96;2019_Dec_05_1112;iat_vr;61.08373541701175;
6;SCHLECHT;negativ;q;0;0;0;11;q;1;0.8407910999999331;002;NSVS96;2019_Dec_05_1112;iat_vr;61.08373541701175;
6;GEBÄUDE;Gemacht;q;0;1;1;5;q;1;0.5134772999999768;002;NSVS96;2019_Dec_05_1112;iat_vr;61.08373541701175;
6;POSITIV;positiv;p;0;2;2;18;p;1;0.5852497999999287;002;NSVS96;2019_Dec_05_1112;iat_vr;61.08373541701175;
6;NEGATIV;negativ;q;0;3;3;12;q;1;0.5967739999998685;002;NSVS96;2019_Dec_05_1112;iat_vr;61.08373541701175;
6;TIER;Natur;p;0;4;4;3;p;1;1.2506115999999565;002;NSVS96;2019_Dec_05_1112;iat_vr;61.08373541701175;
6;KLEIDER;Gemacht;q;0;5;5;7;q;1;0.8687728000002153;002;NSVS96;2019_Dec_05_1112;iat_vr;61.08373541701175;
6;BAUM;Natur;p;0;6;6;0;p;1;0.9654411999999866;002;NSVS96;2019_Dec_05_1112;iat_vr;61.08373541701175;
6;LAMPE;Gemacht;q;0;7;7;9;q;1;0.8013862999998764;002;NSVS96;2019_Dec_05_1112;iat_vr;61.08373541701175;
6;STEIN;Natur;p;0;8;8;4;q;0;1.148205100000041;002;NSVS96;2019_Dec_05_1112;iat_vr;61.08373541701175;
6;WASSER;Natur;p;0;9;9;1;p;1;1.5016315000000304;002;NSVS96;2019_Dec_05_1112;iat_vr;61.08373541701175;
6;SCHWACH;negativ;q;0;10;10;14;q;1;0.7935949000000164;002;NSVS96;2019_Dec_05_1112;iat_vr;61.08373541701175;
6;SCHLIMM;negativ;q;0;11;11;10;q;1;0.5836632000000463;002;NSVS96;2019_Dec_05_1112;iat_vr;61.08373541701175;
6;SCHÄDLICH;negativ;q;0;12;12;13;q;1;0.519346300000052;002;NSVS96;2019_Dec_05_1112;iat_vr;61.08373541701175;
6;EINWANDFREI;positiv;p;0;13;13;16;p;1;0.6853645999999571;002;NSVS96;2019_Dec_05_1112;iat_vr;61.08373541701175;
6;AUSGEZEICHNET;positiv;p;0;14;14;15;p;1;0.5323371999998017;002;NSVS96;2019_Dec_05_1112;iat_vr;61.08373541701175;
6;COMPUTER;Gemacht;q;0;15;15;8;q;1;0.896976800000175;002;NSVS96;2019_Dec_05_1112;iat_vr;61.08373541701175;
6;STADT;Gemacht;q;0;16;16;6;q;1;0.6314373999998679;002;NSVS96;2019_Dec_05_1112;iat_vr;61.08373541701175;
6;HERVORRAGEND;positiv;p;0;17;17;17;p;1;0.777640399999882;002;NSVS96;2019_Dec_05_1112;iat_vr;61.08373541701175;
6;BLUME;Natur;p;0;18;18;2;p;1;0.5689940999998271;002;NSVS96;2019_Dec_05_1112;iat_vr;61.08373541701175;
6;GUT;positiv;p;0;19;19;19;p;1;0.5823884999999791;002;NSVS96;2019_Dec_05_1112;iat_vr;61.08373541701175;
;;;;;;;;;;;002;NSVS96;2019_Dec_05_1112;iat_vr;61.08373541701175;
7;STEIN;Natur;p;0;0;0;4;p;1;1.8792262000001756;002;NSVS96;2019_Dec_05_1112;iat_vr;61.08373541701175;
7;COMPUTER;Gemacht;q;0;1;1;8;q;1;0.6329289999998764;002;NSVS96;2019_Dec_05_1112;iat_vr;61.08373541701175;
7;POSITIV;positiv;p;0;2;2;18;p;1;0.7669150000001537;002;NSVS96;2019_Dec_05_1112;iat_vr;61.08373541701175;
7;LAMPE;Gemacht;q;0;3;3;9;q;1;0.6856290000000627;002;NSVS96;2019_Dec_05_1112;iat_vr;61.08373541701175;
7;SCHWACH;negativ;q;0;4;4;14;q;1;0.8355861000000004;002;NSVS96;2019_Dec_05_1112;iat_vr;61.08373541701175;
7;GUT;positiv;p;0;5;5;19;p;1;0.6022960999998759;002;NSVS96;2019_Dec_05_1112;iat_vr;61.08373541701175;
7;GEBÄUDE;Gemacht;q;0;6;6;5;q;1;0.9294578999999885;002;NSVS96;2019_Dec_05_1112;iat_vr;61.08373541701175;
7;EINWANDFREI;positiv;p;0;7;7;16;p;1;0.7833858999999848;002;NSVS96;2019_Dec_05_1112;iat_vr;61.08373541701175;
7;SCHLIMM;negativ;q;0;8;8;10;q;1;0.6840304999998352;002;NSVS96;2019_Dec_05_1112;iat_vr;61.08373541701175;
7;KLEIDER;Gemacht;q;0;9;9;7;q;1;0.9000765999999203;002;NSVS96;2019_Dec_05_1112;iat_vr;61.08373541701175;
7;BLUME;Natur;p;0;10;10;2;p;1;0.617133800000147;002;NSVS96;2019_Dec_05_1112;iat_vr;61.08373541701175;
7;NEGATIV;negativ;q;0;11;11;12;q;1;0.735595099999955;002;NSVS96;2019_Dec_05_1112;iat_vr;61.08373541701175;
7;WASSER;Natur;p;0;12;12;1;p;1;0.7311185000000933;002;NSVS96;2019_Dec_05_1112;iat_vr;61.08373541701175;
7;HERVORRAGEND;positiv;p;0;13;13;17;p;1;0.5354561999999987;002;NSVS96;2019_Dec_05_1112;iat_vr;61.08373541701175;
7;SCHÄDLICH;negativ;q;0;14;14;13;q;1;0.5122288000000026;002;NSVS96;2019_Dec_05_1112;iat_vr;61.08373541701175;
7;AUSGEZEICHNET;positiv;p;0;15;15;15;p;1;0.7173367000000326;002;NSVS96;2019_Dec_05_1112;iat_vr;61.08373541701175;
7;TIER;Natur;p;0;16;16;3;p;1;0.8819409000000178;002;NSVS96;2019_Dec_05_1112;iat_vr;61.08373541701175;
7;SCHLECHT;negativ;q;0;17;17;11;q;1;0.6453099999998813;002;NSVS96;2019_Dec_05_1112;iat_vr;61.08373541701175;
7;STADT;Gemacht;q;0;18;18;6;q;1;0.963094399999818;002;NSVS96;2019_Dec_05_1112;iat_vr;61.08373541701175;
7;BAUM;Natur;p;0;19;19;0;p;1;0.6849116000000777;002;NSVS96;2019_Dec_05_1112;iat_vr;61.08373541701175;
7;HERVORRAGEND;positiv;p;1;0;20;17;p;1;1.0644135000000006;002;NSVS96;2019_Dec_05_1112;iat_vr;61.08373541701175;
7;SCHLIMM;negativ;q;1;1;21;10;q;1;0.5804049000000759;002;NSVS96;2019_Dec_05_1112;iat_vr;61.08373541701175;
7;BLUME;Natur;p;1;2;22;2;p;1;0.77876480000009;002;NSVS96;2019_Dec_05_1112;iat_vr;61.08373541701175;
7;BAUM;Natur;p;1;3;23;0;p;1;0.5684749999998076;002;NSVS96;2019_Dec_05_1112;iat_vr;61.08373541701175;
7;KLEIDER;Gemacht;q;1;4;24;7;q;1;0.5636466999999357;002;NSVS96;2019_Dec_05_1112;iat_vr;61.08373541701175;
7;STADT;Gemacht;q;1;5;25;6;q;1;0.6329869000001054;002;NSVS96;2019_Dec_05_1112;iat_vr;61.08373541701175;
7;COMPUTER;Gemacht;q;1;6;26;8;q;1;0.6480635000000348;002;NSVS96;2019_Dec_05_1112;iat_vr;61.08373541701175;
7;GUT;positiv;p;1;7;27;19;p;1;0.8510080000000926;002;NSVS96;2019_Dec_05_1112;iat_vr;61.08373541701175;
7;GEBÄUDE;Gemacht;q;1;8;28;5;p;0;0.685207999999875;002;NSVS96;2019_Dec_05_1112;iat_vr;61.08373541701175;
7;POSITIV;positiv;p;1;9;29;18;p;1;0.5836405000000013;002;NSVS96;2019_Dec_05_1112;iat_vr;61.08373541701175;
7;TIER;Natur;p;1;10;30;3;p;1;0.6340995999998995;002;NSVS96;2019_Dec_05_1112;iat_vr;61.08373541701175;
7;NEGATIV;negativ;q;1;11;31;12;q;1;0.5673844000000372;002;NSVS96;2019_Dec_05_1112;iat_vr;61.08373541701175;
7;SCHWACH;negativ;q;1;12;32;14;q;1;0.5852161000000251;002;NSVS96;2019_Dec_05_1112;iat_vr;61.08373541701175;
7;EINWANDFREI;positiv;p;1;13;33;16;p;1;0.6456380999998146;002;NSVS96;2019_Dec_05_1112;iat_vr;61.08373541701175;
7;STEIN;Natur;p;1;14;34;4;p;1;1.0459602000000814;002;NSVS96;2019_Dec_05_1112;iat_vr;61.08373541701175;
7;AUSGEZEICHNET;positiv;p;1;15;35;15;p;1;0.7600829000000431;002;NSVS96;2019_Dec_05_1112;iat_vr;61.08373541701175;
7;WASSER;Natur;p;1;16;36;1;p;1;0.5502367999999933;002;NSVS96;2019_Dec_05_1112;iat_vr;61.08373541701175;
7;SCHÄDLICH;negativ;q;1;17;37;13;q;1;0.6499551999997948;002;NSVS96;2019_Dec_05_1112;iat_vr;61.08373541701175;
7;LAMPE;Gemacht;q;1;18;38;9;q;1;0.6615076999999019;002;NSVS96;2019_Dec_05_1112;iat_vr;61.08373541701175;
7;SCHLECHT;negativ;q;1;19;39;11;q;1;0.6176194999998188;002;NSVS96;2019_Dec_05_1112;iat_vr;61.08373541701175;
;;;;;;;;;;;002;NSVS96;2019_Dec_05_1112;iat_vr;61.08373541701175;
