Block;Word;Category;CorrResp;trials.thisRepN;trials.thisTrialN;trials.thisN;trials.thisIndex;key_resp_2.keys;key_resp_2.corr;key_resp_2.rt;session;participant;date;expName;frameRate;
1;LAMPE;Gemacht;p;0;0;0;9;p;1;0.6052148260023387;002;sutti;2019_May_10_1620;iat_vr;60.06265087068536;
1;KLEIDER;Gemacht;p;0;1;1;7;p;1;0.5706450180005049;002;sutti;2019_May_10_1620;iat_vr;60.06265087068536;
1;COMPUTER;Gemacht;p;0;2;2;8;p;1;0.5707247059981455;002;sutti;2019_May_10_1620;iat_vr;60.06265087068536;
1;BLUME;Natur;q;0;3;3;2;q;1;0.488121359001525;002;sutti;2019_May_10_1620;iat_vr;60.06265087068536;
1;BAUM;Natur;q;0;4;4;0;q;1;0.503915268000128;002;sutti;2019_May_10_1620;iat_vr;60.06265087068536;
1;STADT;Gemacht;p;0;5;5;6;p;1;0.6877886160000344;002;sutti;2019_May_10_1620;iat_vr;60.06265087068536;
1;WASSER;Natur;q;0;6;6;1;q;1;0.5709732840005017;002;sutti;2019_May_10_1620;iat_vr;60.06265087068536;
1;STEIN;Natur;q;0;7;7;4;q;1;0.5712673910020385;002;sutti;2019_May_10_1620;iat_vr;60.06265087068536;
1;TIER;Natur;q;0;8;8;3;q;1;0.6056905219993496;002;sutti;2019_May_10_1620;iat_vr;60.06265087068536;
1;GEBÄUDE;Gemacht;p;0;9;9;5;p;1;0.6381230269980733;002;sutti;2019_May_10_1620;iat_vr;60.06265087068536;
1;WASSER;Natur;q;1;0;10;1;q;1;0.7392244430011488;002;sutti;2019_May_10_1620;iat_vr;60.06265087068536;
1;BAUM;Natur;q;1;1;11;0;q;1;0.6854669029999059;002;sutti;2019_May_10_1620;iat_vr;60.06265087068536;
1;GEBÄUDE;Gemacht;p;1;2;12;5;p;1;0.6388963209974463;002;sutti;2019_May_10_1620;iat_vr;60.06265087068536;
1;STEIN;Natur;q;1;3;13;4;q;1;0.555353080999339;002;sutti;2019_May_10_1620;iat_vr;60.06265087068536;
1;COMPUTER;Gemacht;p;1;4;14;8;p;1;0.905586327000492;002;sutti;2019_May_10_1620;iat_vr;60.06265087068536;
1;BLUME;Natur;q;1;5;15;2;q;1;0.4893832320012734;002;sutti;2019_May_10_1620;iat_vr;60.06265087068536;
1;TIER;Natur;q;1;6;16;3;q;1;0.7555222279988811;002;sutti;2019_May_10_1620;iat_vr;60.06265087068536;
1;STADT;Gemacht;p;1;7;17;6;p;1;0.7059707240005082;002;sutti;2019_May_10_1620;iat_vr;60.06265087068536;
1;KLEIDER;Gemacht;p;1;8;18;7;p;1;0.8890104040001461;002;sutti;2019_May_10_1620;iat_vr;60.06265087068536;
1;LAMPE;Gemacht;p;1;9;19;9;p;1;0.8062945520032372;002;sutti;2019_May_10_1620;iat_vr;60.06265087068536;
;;;;;;;;;;;002;sutti;2019_May_10_1620;iat_vr;60.06265087068536;
2;POSITIV;positiv;p;0;0;0;8;p;1;0.6880571340007009;002;sutti;2019_May_10_1620;iat_vr;60.06265087068536;
2;SCHÄDLICH;negativ;q;0;1;1;3;q;1;0.5369940099990345;002;sutti;2019_May_10_1620;iat_vr;60.06265087068536;
2;GUT;positiv;p;0;2;2;9;p;1;0.5722113189985976;002;sutti;2019_May_10_1620;iat_vr;60.06265087068536;
2;SCHWACH;negativ;q;0;3;3;4;q;1;0.5862226999997802;002;sutti;2019_May_10_1620;iat_vr;60.06265087068536;
2;AUSGEZEICHNET;positiv;p;0;4;4;5;p;1;0.7515786759977345;002;sutti;2019_May_10_1620;iat_vr;60.06265087068536;
2;SCHLIMM;negativ;q;0;5;5;0;q;1;0.5885682730004191;002;sutti;2019_May_10_1620;iat_vr;60.06265087068536;
2;HERVORRAGEND;positiv;p;0;6;6;7;p;1;0.6544605839990254;002;sutti;2019_May_10_1620;iat_vr;60.06265087068536;
2;NEGATIV;negativ;q;0;7;7;2;q;1;0.62236472999939;002;sutti;2019_May_10_1620;iat_vr;60.06265087068536;
2;SCHLECHT;negativ;q;0;8;8;1;q;1;0.7717768859984062;002;sutti;2019_May_10_1620;iat_vr;60.06265087068536;
2;EINWANDFREI;positiv;p;0;9;9;6;p;1;0.8870373770005244;002;sutti;2019_May_10_1620;iat_vr;60.06265087068536;
2;EINWANDFREI;positiv;p;1;0;10;6;p;1;0.6699951420014258;002;sutti;2019_May_10_1620;iat_vr;60.06265087068536;
2;SCHLIMM;negativ;q;1;1;11;0;q;1;0.6213246250008524;002;sutti;2019_May_10_1620;iat_vr;60.06265087068536;
2;HERVORRAGEND;positiv;p;1;2;12;7;p;1;0.9517637889985053;002;sutti;2019_May_10_1620;iat_vr;60.06265087068536;
2;NEGATIV;negativ;q;1;3;13;2;q;1;0.8391252949986665;002;sutti;2019_May_10_1620;iat_vr;60.06265087068536;
2;SCHÄDLICH;negativ;q;1;4;14;3;q;1;0.8216361880004115;002;sutti;2019_May_10_1620;iat_vr;60.06265087068536;
2;POSITIV;positiv;p;1;5;15;8;p;1;0.8381004590009979;002;sutti;2019_May_10_1620;iat_vr;60.06265087068536;
2;SCHWACH;negativ;q;1;6;16;4;q;1;0.7223209389994736;002;sutti;2019_May_10_1620;iat_vr;60.06265087068536;
2;AUSGEZEICHNET;positiv;p;1;7;17;5;p;1;0.8545404850010527;002;sutti;2019_May_10_1620;iat_vr;60.06265087068536;
2;GUT;positiv;p;1;8;18;9;p;1;0.6554801420024887;002;sutti;2019_May_10_1620;iat_vr;60.06265087068536;
2;SCHLECHT;negativ;q;1;9;19;1;q;1;0.704851485999825;002;sutti;2019_May_10_1620;iat_vr;60.06265087068536;
;;;;;;;;;;;002;sutti;2019_May_10_1620;iat_vr;60.06265087068536;
3;STEIN;Natur;q;0;0;0;14;q;1;0.8545882350008469;002;sutti;2019_May_10_1620;iat_vr;60.06265087068536;
3;SCHÄDLICH;negativ;q;0;1;1;3;q;1;0.55527377999897;002;sutti;2019_May_10_1620;iat_vr;60.06265087068536;
3;BLUME;Natur;q;0;2;2;12;q;1;0.7892919599980814;002;sutti;2019_May_10_1620;iat_vr;60.06265087068536;
3;KLEIDER;Gemacht;p;0;3;3;17;p;1;0.6853715289980755;002;sutti;2019_May_10_1620;iat_vr;60.06265087068536;
3;HERVORRAGEND;positiv;p;0;4;4;7;p;1;0.6206492950004758;002;sutti;2019_May_10_1620;iat_vr;60.06265087068536;
3;TIER;Natur;q;0;5;5;13;q;1;0.7055574619989784;002;sutti;2019_May_10_1620;iat_vr;60.06265087068536;
3;GUT;positiv;p;0;6;6;9;p;1;0.5868718999990961;002;sutti;2019_May_10_1620;iat_vr;60.06265087068536;
3;EINWANDFREI;positiv;p;0;7;7;6;p;1;1.1051644289982505;002;sutti;2019_May_10_1620;iat_vr;60.06265087068536;
3;SCHWACH;negativ;q;0;8;8;4;q;1;0.6213538839983812;002;sutti;2019_May_10_1620;iat_vr;60.06265087068536;
3;STADT;Gemacht;p;0;9;9;16;p;1;1.3047187449992634;002;sutti;2019_May_10_1620;iat_vr;60.06265087068536;
3;SCHLIMM;negativ;q;0;10;10;0;q;1;0.7887916040017444;002;sutti;2019_May_10_1620;iat_vr;60.06265087068536;
3;GEBÄUDE;Gemacht;p;0;11;11;15;p;1;0.6889145759996609;002;sutti;2019_May_10_1620;iat_vr;60.06265087068536;
3;AUSGEZEICHNET;positiv;p;0;12;12;5;p;1;0.8210854969984211;002;sutti;2019_May_10_1620;iat_vr;60.06265087068536;
3;LAMPE;Gemacht;p;0;13;13;19;p;1;0.6558101110022108;002;sutti;2019_May_10_1620;iat_vr;60.06265087068536;
3;POSITIV;positiv;p;0;14;14;8;p;1;0.7225685420016816;002;sutti;2019_May_10_1620;iat_vr;60.06265087068536;
3;SCHLECHT;negativ;q;0;15;15;1;q;1;0.7372894090003683;002;sutti;2019_May_10_1620;iat_vr;60.06265087068536;
3;BAUM;Natur;q;0;16;16;10;q;1;0.5389185400017595;002;sutti;2019_May_10_1620;iat_vr;60.06265087068536;
3;NEGATIV;negativ;q;0;17;17;2;q;1;0.6543111020000651;002;sutti;2019_May_10_1620;iat_vr;60.06265087068536;
3;COMPUTER;Gemacht;p;0;18;18;18;p;1;0.6364934379998886;002;sutti;2019_May_10_1620;iat_vr;60.06265087068536;
3;WASSER;Natur;q;0;19;19;11;q;1;0.8563202500008629;002;sutti;2019_May_10_1620;iat_vr;60.06265087068536;
;;;;;;;;;;;002;sutti;2019_May_10_1620;iat_vr;60.06265087068536;
4;SCHLIMM;negativ;q;0;0;0;0;q;1;0.6882785339985276;002;sutti;2019_May_10_1620;iat_vr;60.06265087068536;
4;TIER;Natur;q;0;1;1;13;q;1;0.5392415110000002;002;sutti;2019_May_10_1620;iat_vr;60.06265087068536;
4;STEIN;Natur;q;0;2;2;14;q;1;0.571762307001336;002;sutti;2019_May_10_1620;iat_vr;60.06265087068536;
4;HERVORRAGEND;positiv;p;0;3;3;7;p;1;0.5708496289989853;002;sutti;2019_May_10_1620;iat_vr;60.06265087068536;
4;GUT;positiv;p;0;4;4;9;p;1;0.7399313890018675;002;sutti;2019_May_10_1620;iat_vr;60.06265087068536;
4;SCHÄDLICH;negativ;q;0;5;5;3;q;1;0.5888874400006898;002;sutti;2019_May_10_1620;iat_vr;60.06265087068536;
4;WASSER;Natur;q;0;6;6;11;p;0;1.2373678869989817;002;sutti;2019_May_10_1620;iat_vr;60.06265087068536;
4;SCHWACH;negativ;q;0;7;7;4;q;1;0.9057196940011636;002;sutti;2019_May_10_1620;iat_vr;60.06265087068536;
4;SCHLECHT;negativ;q;0;8;8;1;q;1;0.6380482669992489;002;sutti;2019_May_10_1620;iat_vr;60.06265087068536;
4;COMPUTER;Gemacht;p;0;9;9;18;p;1;0.6716059719983605;002;sutti;2019_May_10_1620;iat_vr;60.06265087068536;
4;BAUM;Natur;q;0;10;10;10;q;1;0.6378063989977818;002;sutti;2019_May_10_1620;iat_vr;60.06265087068536;
4;KLEIDER;Gemacht;p;0;11;11;17;p;1;1.0684234319996904;002;sutti;2019_May_10_1620;iat_vr;60.06265087068536;
4;NEGATIV;negativ;q;0;12;12;2;q;1;0.688287084998592;002;sutti;2019_May_10_1620;iat_vr;60.06265087068536;
4;LAMPE;Gemacht;p;0;13;13;19;p;1;0.9883393570016779;002;sutti;2019_May_10_1620;iat_vr;60.06265087068536;
4;AUSGEZEICHNET;positiv;p;0;14;14;5;p;1;0.9369819999992615;002;sutti;2019_May_10_1620;iat_vr;60.06265087068536;
4;GEBÄUDE;Gemacht;p;0;15;15;15;p;1;1.0220688370027347;002;sutti;2019_May_10_1620;iat_vr;60.06265087068536;
4;BLUME;Natur;q;0;16;16;12;q;1;0.6894438859999354;002;sutti;2019_May_10_1620;iat_vr;60.06265087068536;
4;POSITIV;positiv;p;0;17;17;8;p;1;0.8713802560014301;002;sutti;2019_May_10_1620;iat_vr;60.06265087068536;
4;STADT;Gemacht;p;0;18;18;16;p;1;0.9226936039995053;002;sutti;2019_May_10_1620;iat_vr;60.06265087068536;
4;EINWANDFREI;positiv;p;0;19;19;6;p;1;0.6377843240006769;002;sutti;2019_May_10_1620;iat_vr;60.06265087068536;
4;SCHWACH;negativ;q;1;0;20;4;q;1;0.6526585569990857;002;sutti;2019_May_10_1620;iat_vr;60.06265087068536;
4;HERVORRAGEND;positiv;p;1;1;21;7;p;1;0.7208206489995064;002;sutti;2019_May_10_1620;iat_vr;60.06265087068536;
4;SCHÄDLICH;negativ;q;1;2;22;3;q;1;0.8381222199968761;002;sutti;2019_May_10_1620;iat_vr;60.06265087068536;
4;KLEIDER;Gemacht;p;1;3;23;17;p;1;0.8049659299977066;002;sutti;2019_May_10_1620;iat_vr;60.06265087068536;
4;POSITIV;positiv;p;1;4;24;8;p;1;1.1856626120024885;002;sutti;2019_May_10_1620;iat_vr;60.06265087068536;
4;STEIN;Natur;q;1;5;25;14;q;1;0.8886100540003099;002;sutti;2019_May_10_1620;iat_vr;60.06265087068536;
4;AUSGEZEICHNET;positiv;p;1;6;26;5;p;1;0.6707617560023209;002;sutti;2019_May_10_1620;iat_vr;60.06265087068536;
4;WASSER;Natur;q;1;7;27;11;q;1;0.48805841300054453;002;sutti;2019_May_10_1620;iat_vr;60.06265087068536;
4;STADT;Gemacht;p;1;8;28;16;p;1;0.8227613019989803;002;sutti;2019_May_10_1620;iat_vr;60.06265087068536;
4;NEGATIV;negativ;q;1;9;29;2;q;1;0.5554635930020595;002;sutti;2019_May_10_1620;iat_vr;60.06265087068536;
4;BLUME;Natur;q;1;10;30;12;p;0;0.9229783230002795;002;sutti;2019_May_10_1620;iat_vr;60.06265087068536;
4;TIER;Natur;q;1;11;31;13;q;1;0.6044765799997549;002;sutti;2019_May_10_1620;iat_vr;60.06265087068536;
4;GUT;positiv;p;1;12;32;9;p;1;0.8051415650006675;002;sutti;2019_May_10_1620;iat_vr;60.06265087068536;
4;LAMPE;Gemacht;p;1;13;33;19;p;1;0.7561470210021071;002;sutti;2019_May_10_1620;iat_vr;60.06265087068536;
4;GEBÄUDE;Gemacht;p;1;14;34;15;p;1;1.1220759739990172;002;sutti;2019_May_10_1620;iat_vr;60.06265087068536;
4;SCHLECHT;negativ;q;1;15;35;1;q;1;0.7046508630010067;002;sutti;2019_May_10_1620;iat_vr;60.06265087068536;
4;COMPUTER;Gemacht;p;1;16;36;18;p;1;1.5214148669983842;002;sutti;2019_May_10_1620;iat_vr;60.06265087068536;
4;SCHLIMM;negativ;q;1;17;37;0;q;1;1.1382763070032524;002;sutti;2019_May_10_1620;iat_vr;60.06265087068536;
4;EINWANDFREI;positiv;p;1;18;38;6;p;1;0.6886791590004577;002;sutti;2019_May_10_1620;iat_vr;60.06265087068536;
4;BAUM;Natur;q;1;19;39;10;q;1;0.7562926359969424;002;sutti;2019_May_10_1620;iat_vr;60.06265087068536;
;;;;;;;;;;;002;sutti;2019_May_10_1620;iat_vr;60.06265087068536;
5;STEIN;Natur;p;0;0;0;4;p;1;0.6212924219980778;002;sutti;2019_May_10_1620;iat_vr;60.06265087068536;
5;BLUME;Natur;p;0;1;1;2;p;1;1.0057823250026559;002;sutti;2019_May_10_1620;iat_vr;60.06265087068536;
5;COMPUTER;Gemacht;q;0;2;2;8;q;1;0.7219403369999782;002;sutti;2019_May_10_1620;iat_vr;60.06265087068536;
5;TIER;Natur;p;0;3;3;3;p;1;1.3713303890035604;002;sutti;2019_May_10_1620;iat_vr;60.06265087068536;
5;KLEIDER;Gemacht;q;0;4;4;7;q;1;0.8224406110020936;002;sutti;2019_May_10_1620;iat_vr;60.06265087068536;
5;WASSER;Natur;p;0;5;5;1;p;1;0.6720366350018594;002;sutti;2019_May_10_1620;iat_vr;60.06265087068536;
5;LAMPE;Gemacht;q;0;6;6;9;p;0;1.4565595729982306;002;sutti;2019_May_10_1620;iat_vr;60.06265087068536;
5;GEBÄUDE;Gemacht;q;0;7;7;5;q;1;1.2007914399982837;002;sutti;2019_May_10_1620;iat_vr;60.06265087068536;
5;BAUM;Natur;p;0;8;8;0;p;1;0.6063104259992542;002;sutti;2019_May_10_1620;iat_vr;60.06265087068536;
5;STADT;Gemacht;q;0;9;9;6;q;1;0.4560758439984056;002;sutti;2019_May_10_1620;iat_vr;60.06265087068536;
5;STEIN;Natur;p;1;0;10;4;q;0;0.5393459519982571;002;sutti;2019_May_10_1620;iat_vr;60.06265087068536;
5;BAUM;Natur;p;1;1;11;0;q;0;1.8917077499972947;002;sutti;2019_May_10_1620;iat_vr;60.06265087068536;
5;KLEIDER;Gemacht;q;1;2;12;7;p;0;0.6216521240021393;002;sutti;2019_May_10_1620;iat_vr;60.06265087068536;
5;LAMPE;Gemacht;q;1;3;13;9;q;1;0.9875743179982237;002;sutti;2019_May_10_1620;iat_vr;60.06265087068536;
5;GEBÄUDE;Gemacht;q;1;4;14;5;q;1;1.1236093990009977;002;sutti;2019_May_10_1620;iat_vr;60.06265087068536;
5;BLUME;Natur;p;1;5;15;2;q;0;0.7224337070001638;002;sutti;2019_May_10_1620;iat_vr;60.06265087068536;
5;WASSER;Natur;p;1;6;16;1;p;1;1.5064723909999884;002;sutti;2019_May_10_1620;iat_vr;60.06265087068536;
5;COMPUTER;Gemacht;q;1;7;17;8;q;1;0.9034344680003414;002;sutti;2019_May_10_1620;iat_vr;60.06265087068536;
5;TIER;Natur;p;1;8;18;3;q;0;1.4567424110027787;002;sutti;2019_May_10_1620;iat_vr;60.06265087068536;
5;STADT;Gemacht;q;1;9;19;6;p;0;1.2553422559976752;002;sutti;2019_May_10_1620;iat_vr;60.06265087068536;
;;;;;;;;;;;002;sutti;2019_May_10_1620;iat_vr;60.06265087068536;
6;TIER;Natur;p;0;0;0;3;p;1;1.7714936709999165;002;sutti;2019_May_10_1620;iat_vr;60.06265087068536;
6;POSITIV;positiv;p;0;1;1;18;p;1;0.7198858180017851;002;sutti;2019_May_10_1620;iat_vr;60.06265087068536;
6;STEIN;Natur;p;0;2;2;4;p;1;0.7894353619994945;002;sutti;2019_May_10_1620;iat_vr;60.06265087068536;
6;GUT;positiv;p;0;3;3;19;p;1;0.6041844970022794;002;sutti;2019_May_10_1620;iat_vr;60.06265087068536;
6;SCHLIMM;negativ;q;0;4;4;10;q;1;0.572138747000281;002;sutti;2019_May_10_1620;iat_vr;60.06265087068536;
6;AUSGEZEICHNET;positiv;p;0;5;5;15;p;1;1.337501563000842;002;sutti;2019_May_10_1620;iat_vr;60.06265087068536;
6;EINWANDFREI;positiv;p;0;6;6;16;p;1;0.6211856859990803;002;sutti;2019_May_10_1620;iat_vr;60.06265087068536;
6;KLEIDER;Gemacht;q;0;7;7;7;p;0;0.6888924859995313;002;sutti;2019_May_10_1620;iat_vr;60.06265087068536;
6;STADT;Gemacht;q;0;8;8;6;q;1;0.9553996629983885;002;sutti;2019_May_10_1620;iat_vr;60.06265087068536;
6;LAMPE;Gemacht;q;0;9;9;9;q;1;0.8552639839981566;002;sutti;2019_May_10_1620;iat_vr;60.06265087068536;
6;SCHWACH;negativ;q;0;10;10;14;q;1;0.905654477999633;002;sutti;2019_May_10_1620;iat_vr;60.06265087068536;
6;WASSER;Natur;p;0;11;11;1;p;1;0.8556015599970124;002;sutti;2019_May_10_1620;iat_vr;60.06265087068536;
6;HERVORRAGEND;positiv;p;0;12;12;17;p;1;0.6378830279973045;002;sutti;2019_May_10_1620;iat_vr;60.06265087068536;
6;GEBÄUDE;Gemacht;q;0;13;13;5;q;1;0.9226715850018081;002;sutti;2019_May_10_1620;iat_vr;60.06265087068536;
6;COMPUTER;Gemacht;q;0;14;14;8;q;1;0.722024672999396;002;sutti;2019_May_10_1620;iat_vr;60.06265087068536;
6;SCHLECHT;negativ;q;0;15;15;11;q;1;1.0210698779992526;002;sutti;2019_May_10_1620;iat_vr;60.06265087068536;
6;SCHÄDLICH;negativ;q;0;16;16;13;q;1;0.6385407840025437;002;sutti;2019_May_10_1620;iat_vr;60.06265087068536;
6;NEGATIV;negativ;q;0;17;17;12;q;1;0.6388848569986294;002;sutti;2019_May_10_1620;iat_vr;60.06265087068536;
6;BAUM;Natur;p;0;18;18;0;p;1;0.9891478700010339;002;sutti;2019_May_10_1620;iat_vr;60.06265087068536;
6;BLUME;Natur;p;0;19;19;2;p;1;0.7521910590003245;002;sutti;2019_May_10_1620;iat_vr;60.06265087068536;
;;;;;;;;;;;002;sutti;2019_May_10_1620;iat_vr;60.06265087068536;
7;SCHWACH;negativ;q;0;0;0;14;q;1;0.9545879119978053;002;sutti;2019_May_10_1620;iat_vr;60.06265087068536;
7;SCHLIMM;negativ;q;0;1;1;10;q;1;0.5883699779988092;002;sutti;2019_May_10_1620;iat_vr;60.06265087068536;
7;SCHÄDLICH;negativ;q;0;2;2;13;q;1;0.7349199840027723;002;sutti;2019_May_10_1620;iat_vr;60.06265087068536;
7;SCHLECHT;negativ;q;0;3;3;11;q;1;0.7554788380002719;002;sutti;2019_May_10_1620;iat_vr;60.06265087068536;
7;GEBÄUDE;Gemacht;q;0;4;4;5;q;1;0.6553200340022158;002;sutti;2019_May_10_1620;iat_vr;60.06265087068536;
7;BLUME;Natur;p;0;5;5;2;p;1;0.7059342419997847;002;sutti;2019_May_10_1620;iat_vr;60.06265087068536;
7;HERVORRAGEND;positiv;p;0;6;6;17;p;1;0.6045546169989393;002;sutti;2019_May_10_1620;iat_vr;60.06265087068536;
7;TIER;Natur;p;0;7;7;3;p;1;0.7047310410016507;002;sutti;2019_May_10_1620;iat_vr;60.06265087068536;
7;POSITIV;positiv;p;0;8;8;18;p;1;0.7887997479992919;002;sutti;2019_May_10_1620;iat_vr;60.06265087068536;
7;NEGATIV;negativ;q;0;9;9;12;q;1;0.8890683749996242;002;sutti;2019_May_10_1620;iat_vr;60.06265087068536;
7;GUT;positiv;p;0;10;10;19;p;1;1.0897410659999878;002;sutti;2019_May_10_1620;iat_vr;60.06265087068536;
7;LAMPE;Gemacht;q;0;11;11;9;q;1;0.8387391680007568;002;sutti;2019_May_10_1620;iat_vr;60.06265087068536;
7;BAUM;Natur;p;0;12;12;0;p;1;0.6231180739996489;002;sutti;2019_May_10_1620;iat_vr;60.06265087068536;
7;AUSGEZEICHNET;positiv;p;0;13;13;15;p;1;1.520544090999465;002;sutti;2019_May_10_1620;iat_vr;60.06265087068536;
7;WASSER;Natur;p;0;14;14;1;p;1;1.4885393170006864;002;sutti;2019_May_10_1620;iat_vr;60.06265087068536;
7;COMPUTER;Gemacht;q;0;15;15;8;q;1;0.8223583129984036;002;sutti;2019_May_10_1620;iat_vr;60.06265087068536;
7;STEIN;Natur;p;0;16;16;4;p;1;0.739542770999833;002;sutti;2019_May_10_1620;iat_vr;60.06265087068536;
7;EINWANDFREI;positiv;p;0;17;17;16;p;1;0.8211309789985535;002;sutti;2019_May_10_1620;iat_vr;60.06265087068536;
7;STADT;Gemacht;q;0;18;18;6;q;1;0.8189422469986312;002;sutti;2019_May_10_1620;iat_vr;60.06265087068536;
7;KLEIDER;Gemacht;q;0;19;19;7;q;1;1.7059386760010966;002;sutti;2019_May_10_1620;iat_vr;60.06265087068536;
7;BAUM;Natur;p;1;0;20;0;p;1;0.8192633539983945;002;sutti;2019_May_10_1620;iat_vr;60.06265087068536;
7;WASSER;Natur;p;1;1;21;1;p;1;0.5683828439978242;002;sutti;2019_May_10_1620;iat_vr;60.06265087068536;
7;SCHLECHT;negativ;q;1;2;22;11;q;1;0.6715401590008696;002;sutti;2019_May_10_1620;iat_vr;60.06265087068536;
7;KLEIDER;Gemacht;q;1;3;23;7;q;1;1.5560840139987704;002;sutti;2019_May_10_1620;iat_vr;60.06265087068536;
7;AUSGEZEICHNET;positiv;p;1;4;24;15;p;1;0.7720989439985715;002;sutti;2019_May_10_1620;iat_vr;60.06265087068536;
7;NEGATIV;negativ;q;1;5;25;12;q;1;0.6385167720000027;002;sutti;2019_May_10_1620;iat_vr;60.06265087068536;
7;EINWANDFREI;positiv;p;1;6;26;16;p;1;1.5550738040001306;002;sutti;2019_May_10_1620;iat_vr;60.06265087068536;
7;GEBÄUDE;Gemacht;q;1;7;27;5;q;1;1.1381660709994321;002;sutti;2019_May_10_1620;iat_vr;60.06265087068536;
7;STEIN;Natur;p;1;8;28;4;p;1;0.5890151749990764;002;sutti;2019_May_10_1620;iat_vr;60.06265087068536;
7;BLUME;Natur;p;1;9;29;2;p;1;0.656116029000259;002;sutti;2019_May_10_1620;iat_vr;60.06265087068536;
7;STADT;Gemacht;q;1;10;30;6;q;1;0.8553315959979955;002;sutti;2019_May_10_1620;iat_vr;60.06265087068536;
7;SCHLIMM;negativ;q;1;11;31;10;q;1;1.2556106140000338;002;sutti;2019_May_10_1620;iat_vr;60.06265087068536;
7;POSITIV;positiv;p;1;12;32;18;p;1;0.8222864429990295;002;sutti;2019_May_10_1620;iat_vr;60.06265087068536;
7;COMPUTER;Gemacht;q;1;13;33;8;q;1;0.6713199860023451;002;sutti;2019_May_10_1620;iat_vr;60.06265087068536;
7;GUT;positiv;p;1;14;34;19;p;1;0.5712039889986045;002;sutti;2019_May_10_1620;iat_vr;60.06265087068536;
7;SCHWACH;negativ;q;1;15;35;14;q;1;1.2062081059993943;002;sutti;2019_May_10_1620;iat_vr;60.06265087068536;
7;LAMPE;Gemacht;q;1;16;36;9;q;1;0.7395021810007165;002;sutti;2019_May_10_1620;iat_vr;60.06265087068536;
7;HERVORRAGEND;positiv;p;1;17;37;17;p;1;1.0037481250001292;002;sutti;2019_May_10_1620;iat_vr;60.06265087068536;
7;TIER;Natur;p;1;18;38;3;p;1;1.5233321599989722;002;sutti;2019_May_10_1620;iat_vr;60.06265087068536;
7;SCHÄDLICH;negativ;q;1;19;39;13;q;1;0.6217851530018379;002;sutti;2019_May_10_1620;iat_vr;60.06265087068536;
;;;;;;;;;;;002;sutti;2019_May_10_1620;iat_vr;60.06265087068536;
