participant,Block,Word,Category,CorrResp,trials.thisRepN,trials.thisTrialN,trials.thisN,trials.thisIndex,key_resp_2.keys,key_resp_2.corr,key_resp_2.rt,session,date,expName,frameRate,rt,incorrect
00119636,1,TIER,Natur,q,0,0,0,3,q,1,1.3874518609954976,001,2019_Jul_15_1514,iat_vr,5965028161042937,1387.4518609954976,0
00119636,1,BAUM,Natur,q,0,1,1,0,q,1,0.554125840018969,001,2019_Jul_15_1514,iat_vr,5965028161042937,554.125840018969,0
00119636,1,STADT,Gemacht,p,0,2,2,6,p,1,0.7713238659780473,001,2019_Jul_15_1514,iat_vr,5965028161042937,771.3238659780473,0
00119636,1,KLEIDER,Gemacht,p,0,3,3,7,p,1,0.720799985982012,001,2019_Jul_15_1514,iat_vr,5965028161042937,720.799985982012,0
00119636,1,WASSER,Natur,q,0,4,4,1,q,1,1.1339199040085077,001,2019_Jul_15_1514,iat_vr,5965028161042937,1133.9199040085077,0
00119636,1,LAMPE,Gemacht,p,0,5,5,9,p,1,0.8173777830088511,001,2019_Jul_15_1514,iat_vr,5965028161042937,817.3777830088511,0
00119636,1,COMPUTER,Gemacht,p,0,6,6,8,p,1,0.7202123129973188,001,2019_Jul_15_1514,iat_vr,5965028161042937,720.2123129973188,0
00119636,1,STEIN,Natur,q,0,7,7,4,q,1,0.9174998519592918,001,2019_Jul_15_1514,iat_vr,5965028161042937,917.4998519592918,0
00119636,1,BLUME,Natur,q,0,8,8,2,q,1,1.2707227820064873,001,2019_Jul_15_1514,iat_vr,5965028161042937,1270.7227820064873,0
00119636,1,GEBÄUDE,Gemacht,p,0,9,9,5,p,1,0.7712244789581746,001,2019_Jul_15_1514,iat_vr,5965028161042937,771.2244789581746,0
00119636,1,STEIN,Natur,q,1,0,10,4,q,1,0.9720910390024073,001,2019_Jul_15_1514,iat_vr,5965028161042937,972.0910390024073,0
00119636,1,BLUME,Natur,q,1,1,11,2,q,1,0.9554526029969566,001,2019_Jul_15_1514,iat_vr,5965028161042937,955.4526029969566,0
00119636,1,TIER,Natur,q,1,2,12,3,q,1,0.6393061309936456,001,2019_Jul_15_1514,iat_vr,5965028161042937,639.3061309936456,0
00119636,1,KLEIDER,Gemacht,p,1,3,13,7,p,1,0.8056412169826217,001,2019_Jul_15_1514,iat_vr,5965028161042937,805.6412169826217,0
00119636,1,BAUM,Natur,q,1,4,14,0,q,1,0.9183504989487119,001,2019_Jul_15_1514,iat_vr,5965028161042937,918.3504989487119,0
00119636,1,WASSER,Natur,q,1,5,15,1,q,1,0.8045978879672475,001,2019_Jul_15_1514,iat_vr,5965028161042937,804.5978879672475,0
00119636,1,LAMPE,Gemacht,p,1,6,16,9,p,1,0.90193317795638,001,2019_Jul_15_1514,iat_vr,5965028161042937,901.93317795638,0
00119636,1,GEBÄUDE,Gemacht,p,1,7,17,5,p,1,1.3876482149935327,001,2019_Jul_15_1514,iat_vr,5965028161042937,1387.6482149935327,0
00119636,1,COMPUTER,Gemacht,p,1,8,18,8,p,1,0.754382842045743,001,2019_Jul_15_1514,iat_vr,5965028161042937,754.382842045743,0
00119636,1,STADT,Gemacht,p,1,9,19,6,p,1,1.1553131130058318,001,2019_Jul_15_1514,iat_vr,5965028161042937,1155.3131130058318,0
00119636,2,AUSGEZEICHNET,positiv,p,0,0,0,5,p,1,1.871627365006134,001,2019_Jul_15_1514,iat_vr,5965028161042937,1871.627365006134,0
00119636,2,EINWANDFREI,positiv,p,0,1,1,6,p,1,0.9873273459961638,001,2019_Jul_15_1514,iat_vr,5965028161042937,987.3273459961638,0
00119636,2,SCHWACH,negativ,q,0,2,2,4,q,1,0.8223212860175408,001,2019_Jul_15_1514,iat_vr,5965028161042937,822.3212860175408,0
00119636,2,HERVORRAGEND,positiv,p,0,3,3,7,p,1,1.0038328900118358,001,2019_Jul_15_1514,iat_vr,5965028161042937,1003.8328900118358,0
00119636,2,GUT,positiv,p,0,4,4,9,p,1,1.0891132300021127,001,2019_Jul_15_1514,iat_vr,5965028161042937,1089.1132300021127,0
00119636,2,POSITIV,positiv,p,0,5,5,8,p,1,0.722280980029609,001,2019_Jul_15_1514,iat_vr,5965028161042937,722.280980029609,0
00119636,2,SCHÄDLICH,negativ,q,0,6,6,3,q,1,0.7555702129611745,001,2019_Jul_15_1514,iat_vr,5965028161042937,755.5702129611745,0
00119636,2,SCHLECHT,negativ,q,0,7,7,1,q,1,0.7389941170113161,001,2019_Jul_15_1514,iat_vr,5965028161042937,738.9941170113161,0
00119636,2,NEGATIV,negativ,q,0,8,8,2,q,1,0.5724319230066612,001,2019_Jul_15_1514,iat_vr,5965028161042937,572.4319230066612,0
00119636,2,SCHLIMM,negativ,q,0,9,9,0,q,1,0.6866079070023261,001,2019_Jul_15_1514,iat_vr,5965028161042937,686.6079070023261,0
00119636,2,SCHÄDLICH,negativ,q,1,0,10,3,q,1,0.621338527998887,001,2019_Jul_15_1514,iat_vr,5965028161042937,621.338527998887,0
00119636,2,AUSGEZEICHNET,positiv,p,1,1,11,5,p,1,0.8210871560149826,001,2019_Jul_15_1514,iat_vr,5965028161042937,821.0871560149826,0
00119636,2,EINWANDFREI,positiv,p,1,2,12,6,p,1,0.6339744940050878,001,2019_Jul_15_1514,iat_vr,5965028161042937,633.9744940050878,0
00119636,2,GUT,positiv,p,1,3,13,9,p,1,0.7711085390183143,001,2019_Jul_15_1514,iat_vr,5965028161042937,771.1085390183143,0
00119636,2,SCHLIMM,negativ,q,1,4,14,0,q,1,0.9337856649653986,001,2019_Jul_15_1514,iat_vr,5965028161042937,933.7856649653986,0
00119636,2,SCHLECHT,negativ,q,1,5,15,1,q,1,0.7717087409691885,001,2019_Jul_15_1514,iat_vr,5965028161042937,771.7087409691885,0
00119636,2,SCHWACH,negativ,q,1,6,16,4,q,1,0.8889690199866891,001,2019_Jul_15_1514,iat_vr,5965028161042937,888.9690199866891,0
00119636,2,NEGATIV,negativ,q,1,7,17,2,q,1,0.7391120250103995,001,2019_Jul_15_1514,iat_vr,5965028161042937,739.1120250103995,0
00119636,2,POSITIV,positiv,p,1,8,18,8,p,1,0.651211277989205,001,2019_Jul_15_1514,iat_vr,5965028161042937,651.211277989205,0
00119636,2,HERVORRAGEND,positiv,p,1,9,19,7,p,1,1.0050433650030755,001,2019_Jul_15_1514,iat_vr,5965028161042937,1005.0433650030755,0
00119636,3,SCHLIMM,negativ,q,0,0,0,0,q,1,1.6568089480279014,001,2019_Jul_15_1514,iat_vr,5965028161042937,1656.8089480279014,0
00119636,3,BLUME,Natur,q,0,1,1,12,q,1,0.8716025140020065,001,2019_Jul_15_1514,iat_vr,5965028161042937,871.6025140020065,0
00119636,3,GUT,positiv,p,0,2,2,9,p,1,0.8392509389668703,001,2019_Jul_15_1514,iat_vr,5965028161042937,839.2509389668703,0
00119636,3,STEIN,Natur,q,0,3,3,14,q,1,1.0017211149679497,001,2019_Jul_15_1514,iat_vr,5965028161042937,1001.7211149679497,0
00119636,3,GEBÄUDE,Gemacht,p,0,4,4,15,p,1,0.8726326419855468,001,2019_Jul_15_1514,iat_vr,5965028161042937,872.6326419855468,0
00119636,3,LAMPE,Gemacht,p,0,5,5,19,p,1,1.019351597991772,001,2019_Jul_15_1514,iat_vr,5965028161042937,1019.351597991772,0
00119636,3,COMPUTER,Gemacht,p,0,6,6,18,p,1,0.6714878610218875,001,2019_Jul_15_1514,iat_vr,5965028161042937,671.4878610218875,0
00119636,3,HERVORRAGEND,positiv,p,0,7,7,7,p,1,0.7547482889494859,001,2019_Jul_15_1514,iat_vr,5965028161042937,754.7482889494859,0
00119636,3,WASSER,Natur,q,0,8,8,11,q,1,0.7055431850021705,001,2019_Jul_15_1514,iat_vr,5965028161042937,705.5431850021705,0
00119636,3,AUSGEZEICHNET,positiv,p,0,9,9,5,p,1,0.8540057929931208,001,2019_Jul_15_1514,iat_vr,5965028161042937,854.0057929931208,0
00119636,3,KLEIDER,Gemacht,p,0,10,10,17,p,1,1.5892416540300474,001,2019_Jul_15_1514,iat_vr,5965028161042937,1589.2416540300474,0
00119636,3,SCHWACH,negativ,q,0,11,11,4,q,1,0.8213823990081437,001,2019_Jul_15_1514,iat_vr,5965028161042937,821.3823990081437,0
00119636,3,BAUM,Natur,q,0,12,12,10,q,1,0.6391765200532973,001,2019_Jul_15_1514,iat_vr,5965028161042937,639.1765200532973,0
00119636,3,SCHLECHT,negativ,q,0,13,13,1,q,1,0.8042632219730876,001,2019_Jul_15_1514,iat_vr,5965028161042937,804.2632219730876,0
00119636,3,TIER,Natur,q,0,14,14,13,q,1,0.788008333009202,001,2019_Jul_15_1514,iat_vr,5965028161042937,788.008333009202,0
00119636,3,EINWANDFREI,positiv,p,0,15,15,6,p,1,0.78775219299132,001,2019_Jul_15_1514,iat_vr,5965028161042937,787.75219299132,0
00119636,3,SCHÄDLICH,negativ,q,0,16,16,3,q,1,0.7714584390050732,001,2019_Jul_15_1514,iat_vr,5965028161042937,771.4584390050732,0
00119636,3,STADT,Gemacht,p,0,17,17,16,p,1,1.9392935989890248,001,2019_Jul_15_1514,iat_vr,5965028161042937,1939.2935989890248,0
00119636,3,NEGATIV,negativ,q,0,18,18,2,p,0,0.6221606300096028,001,2019_Jul_15_1514,iat_vr,5965028161042937,622.1606300096028,1
00119636,3,POSITIV,positiv,p,0,19,19,8,p,1,0.9890622610109858,001,2019_Jul_15_1514,iat_vr,5965028161042937,989.0622610109858,0
00119636,4,EINWANDFREI,positiv,p,0,0,0,6,p,1,1.4387474959949031,001,2019_Jul_15_1514,iat_vr,5965028161042937,1438.7474959949031,0
00119636,4,TIER,Natur,q,0,1,1,13,q,1,0.6512275860295631,001,2019_Jul_15_1514,iat_vr,5965028161042937,651.2275860295631,0
00119636,4,AUSGEZEICHNET,positiv,p,0,2,2,5,p,1,0.8874675399856642,001,2019_Jul_15_1514,iat_vr,5965028161042937,887.4675399856642,0
00119636,4,NEGATIV,negativ,q,0,3,3,2,q,1,0.7883224979741499,001,2019_Jul_15_1514,iat_vr,5965028161042937,788.3224979741499,0
00119636,4,BLUME,Natur,q,0,4,4,12,q,1,0.6712473499937914,001,2019_Jul_15_1514,iat_vr,5965028161042937,671.2473499937914,0
00119636,4,COMPUTER,Gemacht,p,0,5,5,18,p,1,0.6886425859993324,001,2019_Jul_15_1514,iat_vr,5965028161042937,688.6425859993324,0
00119636,4,STADT,Gemacht,p,0,6,6,16,p,1,0.6026997219887562,001,2019_Jul_15_1514,iat_vr,5965028161042937,602.6997219887562,0
00119636,4,SCHLECHT,negativ,q,0,7,7,1,q,1,1.0212858649902046,001,2019_Jul_15_1514,iat_vr,5965028161042937,1021.2858649902046,0
00119636,4,GEBÄUDE,Gemacht,p,0,8,8,15,p,1,1.7558136099833064,001,2019_Jul_15_1514,iat_vr,5965028161042937,1755.8136099833064,0
00119636,4,LAMPE,Gemacht,p,0,9,9,19,p,1,1.4062140499590896,001,2019_Jul_15_1514,iat_vr,5965028161042937,1406.2140499590896,0
00119636,4,SCHÄDLICH,negativ,q,0,10,10,3,q,1,0.9050340850371867,001,2019_Jul_15_1514,iat_vr,5965028161042937,905.0340850371867,0
00119636,4,STEIN,Natur,q,0,11,11,14,q,1,0.7555215029860847,001,2019_Jul_15_1514,iat_vr,5965028161042937,755.5215029860847,0
00119636,4,SCHLIMM,negativ,q,0,12,12,0,p,0,0.9019903109874576,001,2019_Jul_15_1514,iat_vr,5965028161042937,901.9903109874576,1
00119636,4,HERVORRAGEND,positiv,p,0,13,13,7,p,1,2.385224784957245,001,2019_Jul_15_1514,iat_vr,5965028161042937,2385.224784957245,0
00119636,4,GUT,positiv,p,0,14,14,9,p,1,0.7045449910219759,001,2019_Jul_15_1514,iat_vr,5965028161042937,704.5449910219759,0
00119636,4,POSITIV,positiv,p,0,15,15,8,p,1,0.7886563719948754,001,2019_Jul_15_1514,iat_vr,5965028161042937,788.6563719948754,0
00119636,4,SCHWACH,negativ,q,0,16,16,4,q,1,0.8725366650032811,001,2019_Jul_15_1514,iat_vr,5965028161042937,872.5366650032811,0
00119636,4,WASSER,Natur,q,0,17,17,11,q,1,0.9525206109974533,001,2019_Jul_15_1514,iat_vr,5965028161042937,952.5206109974533,0
00119636,4,BAUM,Natur,q,0,18,18,10,q,1,0.48917213099775836,001,2019_Jul_15_1514,iat_vr,5965028161042937,489.17213099775836,0
00119636,4,KLEIDER,Gemacht,p,0,19,19,17,p,1,0.7391568600432947,001,2019_Jul_15_1514,iat_vr,5965028161042937,739.1568600432947,0
00119636,4,BLUME,Natur,q,1,0,20,12,q,1,2.6558172500226647,001,2019_Jul_15_1514,iat_vr,5965028161042937,2655.8172500226647,0
00119636,4,KLEIDER,Gemacht,p,1,1,21,17,p,1,0.854400621028617,001,2019_Jul_15_1514,iat_vr,5965028161042937,854.400621028617,0
00119636,4,NEGATIV,negativ,q,1,2,22,2,q,1,0.8885911760153249,001,2019_Jul_15_1514,iat_vr,5965028161042937,888.5911760153249,0
00119636,4,BAUM,Natur,q,1,3,23,10,q,1,1.1047016700031236,001,2019_Jul_15_1514,iat_vr,5965028161042937,1104.7016700031236,0
00119636,4,GUT,positiv,p,1,4,24,9,q,0,2.5214436430251226,001,2019_Jul_15_1514,iat_vr,5965028161042937,2521.4436430251226,1
00119636,4,POSITIV,positiv,p,1,5,25,8,p,1,1.321776303986553,001,2019_Jul_15_1514,iat_vr,5965028161042937,1321.776303986553,0
00119636,4,STEIN,Natur,q,1,6,26,14,q,1,1.688870862009935,001,2019_Jul_15_1514,iat_vr,5965028161042937,1688.870862009935,0
00119636,4,HERVORRAGEND,positiv,p,1,7,27,7,p,1,0.904032633989118,001,2019_Jul_15_1514,iat_vr,5965028161042937,904.032633989118,0
00119636,4,SCHWACH,negativ,q,1,8,28,4,q,1,1.1207440319703892,001,2019_Jul_15_1514,iat_vr,5965028161042937,1120.7440319703892,0
00119636,4,WASSER,Natur,q,1,9,29,11,q,1,0.8043399309972301,001,2019_Jul_15_1514,iat_vr,5965028161042937,804.3399309972301,0
00119636,4,SCHÄDLICH,negativ,q,1,10,30,3,q,1,0.9878698699758388,001,2019_Jul_15_1514,iat_vr,5965028161042937,987.8698699758388,0
00119636,4,STADT,Gemacht,p,1,11,31,16,p,1,2.190464615006931,001,2019_Jul_15_1514,iat_vr,5965028161042937,2190.464615006931,0
00119636,4,AUSGEZEICHNET,positiv,p,1,12,32,5,p,1,0.8878227840177715,001,2019_Jul_15_1514,iat_vr,5965028161042937,887.8227840177715,0
00119636,4,EINWANDFREI,positiv,p,1,13,33,6,p,1,1.0207849880098365,001,2019_Jul_15_1514,iat_vr,5965028161042937,1020.7849880098365,0
00119636,4,SCHLIMM,negativ,q,1,14,34,0,q,1,0.6391578859766014,001,2019_Jul_15_1514,iat_vr,5965028161042937,639.1578859766014,0
00119636,4,COMPUTER,Gemacht,p,1,15,35,18,p,1,0.7886564540094696,001,2019_Jul_15_1514,iat_vr,5965028161042937,788.6564540094696,0
00119636,4,GEBÄUDE,Gemacht,p,1,16,36,15,p,1,1.088322413037531,001,2019_Jul_15_1514,iat_vr,5965028161042937,1088.322413037531,0
00119636,4,SCHLECHT,negativ,q,1,17,37,1,q,1,1.8223424990428612,001,2019_Jul_15_1514,iat_vr,5965028161042937,1822.3424990428612,0
00119636,4,LAMPE,Gemacht,p,1,18,38,19,p,1,0.673230848973617,001,2019_Jul_15_1514,iat_vr,5965028161042937,673.230848973617,0
00119636,4,TIER,Natur,q,1,19,39,13,q,1,1.1545183359994553,001,2019_Jul_15_1514,iat_vr,5965028161042937,1154.5183359994553,0
00119636,5,TIER,Natur,p,0,0,0,3,p,1,1.7179267900064588,001,2019_Jul_15_1514,iat_vr,5965028161042937,1717.9267900064588,0
00119636,5,LAMPE,Gemacht,q,0,1,1,9,q,1,1.172794968006201,001,2019_Jul_15_1514,iat_vr,5965028161042937,1172.794968006201,0
00119636,5,WASSER,Natur,p,0,2,2,1,p,1,0.9190428470028564,001,2019_Jul_15_1514,iat_vr,5965028161042937,919.0428470028564,0
00119636,5,BAUM,Natur,p,0,3,3,0,p,1,1.1560347700142302,001,2019_Jul_15_1514,iat_vr,5965028161042937,1156.0347700142302,0
00119636,5,STEIN,Natur,p,0,4,4,4,p,1,0.5683483809698373,001,2019_Jul_15_1514,iat_vr,5965028161042937,568.3483809698373,0
00119636,5,BLUME,Natur,p,0,5,5,2,p,1,0.47198070702143013,001,2019_Jul_15_1514,iat_vr,5965028161042937,471.98070702143013,0
00119636,5,STADT,Gemacht,q,0,6,6,6,q,1,0.788304008950945,001,2019_Jul_15_1514,iat_vr,5965028161042937,788.304008950945,0
00119636,5,KLEIDER,Gemacht,q,0,7,7,7,q,1,0.739113180025015,001,2019_Jul_15_1514,iat_vr,5965028161042937,739.113180025015,0
00119636,5,GEBÄUDE,Gemacht,q,0,8,8,5,q,1,0.5720626080292277,001,2019_Jul_15_1514,iat_vr,5965028161042937,572.0626080292277,0
00119636,5,COMPUTER,Gemacht,q,0,9,9,8,q,1,0.5051204689661972,001,2019_Jul_15_1514,iat_vr,5965028161042937,505.1204689661972,0
00119636,5,WASSER,Natur,p,1,0,10,1,p,1,1.0061537299770862,001,2019_Jul_15_1514,iat_vr,5965028161042937,1006.1537299770862,0
00119636,5,GEBÄUDE,Gemacht,q,1,1,11,5,q,1,0.9049194170511328,001,2019_Jul_15_1514,iat_vr,5965028161042937,904.9194170511328,0
00119636,5,TIER,Natur,p,1,2,12,3,p,1,0.7397888730047271,001,2019_Jul_15_1514,iat_vr,5965028161042937,739.7888730047271,0
00119636,5,LAMPE,Gemacht,q,1,3,13,9,q,1,3.40601199795492,001,2019_Jul_15_1514,iat_vr,5965028161042937,3406.01199795492,0
00119636,5,BAUM,Natur,p,1,4,14,0,p,1,0.6733838360523805,001,2019_Jul_15_1514,iat_vr,5965028161042937,673.3838360523805,0
00119636,5,KLEIDER,Gemacht,q,1,5,15,7,q,1,2.3720399160520174,001,2019_Jul_15_1514,iat_vr,5965028161042937,2372.0399160520174,0
00119636,5,STADT,Gemacht,q,1,6,16,6,q,1,0.6059608770301566,001,2019_Jul_15_1514,iat_vr,5965028161042937,605.9608770301566,0
00119636,5,COMPUTER,Gemacht,q,1,7,17,8,q,1,0.5550092069897801,001,2019_Jul_15_1514,iat_vr,5965028161042937,555.0092069897801,0
00119636,5,BLUME,Natur,p,1,8,18,2,p,1,0.7525554309831932,001,2019_Jul_15_1514,iat_vr,5965028161042937,752.5554309831932,0
00119636,5,STEIN,Natur,p,1,9,19,4,p,1,1.4049792930018157,001,2019_Jul_15_1514,iat_vr,5965028161042937,1404.9792930018157,0
00119636,6,STADT,Gemacht,q,0,0,0,6,q,1,1.4720524830045179,001,2019_Jul_15_1514,iat_vr,5965028161042937,1472.0524830045179,0
00119636,6,HERVORRAGEND,positiv,p,0,1,1,17,p,1,1.571572833985556,001,2019_Jul_15_1514,iat_vr,5965028161042937,1571.572833985556,0
00119636,6,STEIN,Natur,p,0,2,2,4,p,1,0.6728219329961576,001,2019_Jul_15_1514,iat_vr,5965028161042937,672.8219329961576,0
00119636,6,AUSGEZEICHNET,positiv,p,0,3,3,15,p,1,0.6005805309978314,001,2019_Jul_15_1514,iat_vr,5965028161042937,600.5805309978314,0
00119636,6,SCHWACH,negativ,q,0,4,4,14,q,1,0.7880721620167606,001,2019_Jul_15_1514,iat_vr,5965028161042937,788.0721620167606,0
00119636,6,EINWANDFREI,positiv,p,0,5,5,16,p,1,0.8211911669932306,001,2019_Jul_15_1514,iat_vr,5965028161042937,821.1911669932306,0
00119636,6,SCHLECHT,negativ,q,0,6,6,11,q,1,1.0219565120059997,001,2019_Jul_15_1514,iat_vr,5965028161042937,1021.9565120059997,0
00119636,6,SCHÄDLICH,negativ,q,0,7,7,13,q,1,0.6874098119442351,001,2019_Jul_15_1514,iat_vr,5965028161042937,687.4098119442351,0
00119636,6,WASSER,Natur,p,0,8,8,1,p,1,0.855119944026228,001,2019_Jul_15_1514,iat_vr,5965028161042937,855.119944026228,0
00119636,6,NEGATIV,negativ,q,0,9,9,12,q,1,1.4389190110377967,001,2019_Jul_15_1514,iat_vr,5965028161042937,1438.9190110377967,0
00119636,6,POSITIV,positiv,p,0,10,10,18,p,1,0.6719567640102468,001,2019_Jul_15_1514,iat_vr,5965028161042937,671.9567640102468,0
00119636,6,TIER,Natur,p,0,11,11,3,p,1,0.7842638830188662,001,2019_Jul_15_1514,iat_vr,5965028161042937,784.2638830188662,0
00119636,6,GUT,positiv,p,0,12,12,19,p,1,0.6890504229813814,001,2019_Jul_15_1514,iat_vr,5965028161042937,689.0504229813814,0
00119636,6,BLUME,Natur,p,0,13,13,2,p,1,0.5559978779638186,001,2019_Jul_15_1514,iat_vr,5965028161042937,555.9978779638186,0
00119636,6,COMPUTER,Gemacht,q,0,14,14,8,q,1,0.8044165250030346,001,2019_Jul_15_1514,iat_vr,5965028161042937,804.4165250030346,0
00119636,6,GEBÄUDE,Gemacht,q,0,15,15,5,q,1,0.6550231709843501,001,2019_Jul_15_1514,iat_vr,5965028161042937,655.0231709843501,0
00119636,6,LAMPE,Gemacht,q,0,16,16,9,q,1,1.5898467790102586,001,2019_Jul_15_1514,iat_vr,5965028161042937,1589.8467790102586,0
00119636,6,BAUM,Natur,p,0,17,17,0,p,1,0.7732066270546056,001,2019_Jul_15_1514,iat_vr,5965028161042937,773.2066270546056,0
00119636,6,SCHLIMM,negativ,q,0,18,18,10,q,1,0.9388453779974952,001,2019_Jul_15_1514,iat_vr,5965028161042937,938.8453779974952,0
00119636,6,KLEIDER,Gemacht,q,0,19,19,7,p,0,1.4215143430046737,001,2019_Jul_15_1514,iat_vr,5965028161042937,1421.5143430046737,1
00119636,7,SCHLECHT,negativ,q,0,0,0,11,q,1,0.9725249959737994,001,2019_Jul_15_1514,iat_vr,5965028161042937,972.5249959737994,0
00119636,7,HERVORRAGEND,positiv,p,0,1,1,17,p,1,0.6377311850083061,001,2019_Jul_15_1514,iat_vr,5965028161042937,637.731185008306,0
00119636,7,WASSER,Natur,p,0,2,2,1,p,1,0.8210876099765301,001,2019_Jul_15_1514,iat_vr,5965028161042937,821.0876099765301,0
00119636,7,POSITIV,positiv,p,0,3,3,18,p,1,0.6214276989921927,001,2019_Jul_15_1514,iat_vr,5965028161042937,621.4276989921927,0
00119636,7,SCHWACH,negativ,q,0,4,4,14,q,1,0.6046967750298791,001,2019_Jul_15_1514,iat_vr,5965028161042937,604.6967750298791,0
00119636,7,TIER,Natur,p,0,5,5,3,p,1,0.8206567279994488,001,2019_Jul_15_1514,iat_vr,5965028161042937,820.6567279994488,0
00119636,7,SCHLIMM,negativ,q,0,6,6,10,q,1,0.8715324309887365,001,2019_Jul_15_1514,iat_vr,5965028161042937,871.5324309887365,0
00119636,7,NEGATIV,negativ,q,0,7,7,12,q,1,0.5887799570336938,001,2019_Jul_15_1514,iat_vr,5965028161042937,588.7799570336938,0
00119636,7,LAMPE,Gemacht,q,0,8,8,9,q,1,0.7702667879639193,001,2019_Jul_15_1514,iat_vr,5965028161042937,770.2667879639193,0
00119636,7,STEIN,Natur,p,0,9,9,4,p,1,0.6704842069884762,001,2019_Jul_15_1514,iat_vr,5965028161042937,670.4842069884762,0
00119636,7,GUT,positiv,p,0,10,10,19,p,1,1.0555453289998695,001,2019_Jul_15_1514,iat_vr,5965028161042937,1055.5453289998695,0
00119636,7,EINWANDFREI,positiv,p,0,11,11,16,p,1,0.6881253210012801,001,2019_Jul_15_1514,iat_vr,5965028161042937,688.1253210012801,0
00119636,7,COMPUTER,Gemacht,q,0,12,12,8,q,1,0.6387572509702295,001,2019_Jul_15_1514,iat_vr,5965028161042937,638.7572509702295,0
00119636,7,BLUME,Natur,p,0,13,13,2,p,1,1.923258833005093,001,2019_Jul_15_1514,iat_vr,5965028161042937,1923.258833005093,0
00119636,7,BAUM,Natur,p,0,14,14,0,p,1,0.5056250090128742,001,2019_Jul_15_1514,iat_vr,5965028161042937,505.6250090128742,0
00119636,7,GEBÄUDE,Gemacht,q,0,15,15,5,q,1,0.6710516429739073,001,2019_Jul_15_1514,iat_vr,5965028161042937,671.0516429739073,0
00119636,7,SCHÄDLICH,negativ,q,0,16,16,13,q,1,2.1549623390310444,001,2019_Jul_15_1514,iat_vr,5965028161042937,2154.9623390310444,0
00119636,7,AUSGEZEICHNET,positiv,p,0,17,17,15,p,1,0.6219018169795163,001,2019_Jul_15_1514,iat_vr,5965028161042937,621.9018169795163,0
00119636,7,STADT,Gemacht,q,0,18,18,6,p,0,1.9220517529756762,001,2019_Jul_15_1514,iat_vr,5965028161042937,1922.0517529756762,1
00119636,7,KLEIDER,Gemacht,q,0,19,19,7,p,0,1.18930728797568,001,2019_Jul_15_1514,iat_vr,5965028161042937,1189.30728797568,1
00119636,7,BAUM,Natur,p,1,0,20,0,p,1,0.8880970570025966,001,2019_Jul_15_1514,iat_vr,5965028161042937,888.0970570025966,0
00119636,7,POSITIV,positiv,p,1,1,21,18,p,1,0.5375786089571193,001,2019_Jul_15_1514,iat_vr,5965028161042937,537.5786089571193,0
00119636,7,COMPUTER,Gemacht,q,1,2,22,8,q,1,0.6721325719845481,001,2019_Jul_15_1514,iat_vr,5965028161042937,672.1325719845481,0
00119636,7,SCHÄDLICH,negativ,q,1,3,23,13,q,1,0.6727576180128381,001,2019_Jul_15_1514,iat_vr,5965028161042937,672.7576180128381,0
00119636,7,EINWANDFREI,positiv,p,1,4,24,16,p,1,0.67094724701019,001,2019_Jul_15_1514,iat_vr,5965028161042937,670.94724701019,0
00119636,7,STEIN,Natur,p,1,5,25,4,p,1,1.2882222160114907,001,2019_Jul_15_1514,iat_vr,5965028161042937,1288.2222160114907,0
00119636,7,LAMPE,Gemacht,q,1,6,26,9,q,1,0.5893751650000922,001,2019_Jul_15_1514,iat_vr,5965028161042937,589.3751650000922,0
00119636,7,KLEIDER,Gemacht,q,1,7,27,7,q,1,0.7892227790434845,001,2019_Jul_15_1514,iat_vr,5965028161042937,789.2227790434845,0
00119636,7,SCHWACH,negativ,q,1,8,28,14,q,1,1.3374645200092345,001,2019_Jul_15_1514,iat_vr,5965028161042937,1337.4645200092345,0
00119636,7,SCHLECHT,negativ,q,1,9,29,11,q,1,0.7209728689631447,001,2019_Jul_15_1514,iat_vr,5965028161042937,720.9728689631447,0
00119636,7,STADT,Gemacht,q,1,10,30,6,q,1,0.8391680149943568,001,2019_Jul_15_1514,iat_vr,5965028161042937,839.1680149943568,0
00119636,7,BLUME,Natur,p,1,11,31,2,p,1,1.3731223409995437,001,2019_Jul_15_1514,iat_vr,5965028161042937,1373.1223409995437,0
00119636,7,WASSER,Natur,p,1,12,32,1,p,1,0.4548207490006462,001,2019_Jul_15_1514,iat_vr,5965028161042937,454.8207490006462,0
00119636,7,SCHLIMM,negativ,q,1,13,33,10,q,1,0.8375360909849405,001,2019_Jul_15_1514,iat_vr,5965028161042937,837.5360909849405,0
00119636,7,GEBÄUDE,Gemacht,q,1,14,34,5,q,1,0.7056257629883476,001,2019_Jul_15_1514,iat_vr,5965028161042937,705.6257629883476,0
00119636,7,AUSGEZEICHNET,positiv,p,1,15,35,15,p,1,0.6376453269622289,001,2019_Jul_15_1514,iat_vr,5965028161042937,637.6453269622289,0
00119636,7,GUT,positiv,p,1,16,36,19,p,1,0.6219747180002742,001,2019_Jul_15_1514,iat_vr,5965028161042937,621.9747180002742,0
00119636,7,NEGATIV,negativ,q,1,17,37,12,q,1,0.7548572279629298,001,2019_Jul_15_1514,iat_vr,5965028161042937,754.8572279629298,0
00119636,7,TIER,Natur,p,1,18,38,3,p,1,0.7899863049970008,001,2019_Jul_15_1514,iat_vr,5965028161042937,789.9863049970008,0
00119636,7,HERVORRAGEND,positiv,p,1,19,39,17,p,1,0.6377553110360168,001,2019_Jul_15_1514,iat_vr,5965028161042937,637.7553110360168,0
00119636,1,BAUM,Natur,q,0,0,0,0,q,1,1.307250979996752,002,2019_Jul_15_1547,iat_vr,5996669353274112,1307.250979996752,0
00119636,1,STEIN,Natur,q,0,1,1,4,q,1,0.9212940209545195,002,2019_Jul_15_1547,iat_vr,5996669353274112,921.2940209545195,0
00119636,1,BLUME,Natur,q,0,2,2,2,q,1,0.5377922710031271,002,2019_Jul_15_1547,iat_vr,5996669353274112,537.7922710031271,0
00119636,1,WASSER,Natur,q,0,3,3,1,q,1,0.7041338100098073,002,2019_Jul_15_1547,iat_vr,5996669353274112,704.1338100098073,0
00119636,1,GEBÄUDE,Gemacht,p,0,4,4,5,p,1,0.7211722950451076,002,2019_Jul_15_1547,iat_vr,5996669353274112,721.1722950451076,0
00119636,1,TIER,Natur,q,0,5,5,3,q,1,2.089766225020867,002,2019_Jul_15_1547,iat_vr,5996669353274112,2089.766225020867,0
00119636,1,COMPUTER,Gemacht,p,0,6,6,8,p,1,0.5546973220189102,002,2019_Jul_15_1547,iat_vr,5996669353274112,554.6973220189102,0
00119636,1,STADT,Gemacht,p,0,7,7,6,p,1,0.6522159570013173,002,2019_Jul_15_1547,iat_vr,5996669353274112,652.2159570013173,0
00119636,1,KLEIDER,Gemacht,p,0,8,8,7,p,1,0.838035263994243,002,2019_Jul_15_1547,iat_vr,5996669353274112,838.035263994243,0
00119636,1,LAMPE,Gemacht,p,0,9,9,9,p,1,0.6883859670488164,002,2019_Jul_15_1547,iat_vr,5996669353274112,688.3859670488164,0
00119636,1,KLEIDER,Gemacht,p,1,0,10,7,p,1,0.537977730971761,002,2019_Jul_15_1547,iat_vr,5996669353274112,537.977730971761,0
00119636,1,WASSER,Natur,q,1,1,11,1,q,1,0.8558077950146981,002,2019_Jul_15_1547,iat_vr,5996669353274112,855.8077950146981,0
00119636,1,BLUME,Natur,q,1,2,12,2,q,1,0.5058470570365898,002,2019_Jul_15_1547,iat_vr,5996669353274112,505.84705703658983,0
00119636,1,STEIN,Natur,q,1,3,13,4,q,1,0.7058224270003848,002,2019_Jul_15_1547,iat_vr,5996669353274112,705.8224270003848,0
00119636,1,TIER,Natur,q,1,4,14,3,q,1,0.6387458569952287,002,2019_Jul_15_1547,iat_vr,5996669353274112,638.7458569952287,0
00119636,1,GEBÄUDE,Gemacht,p,1,5,15,5,p,1,0.8389982569497079,002,2019_Jul_15_1547,iat_vr,5996669353274112,838.9982569497079,0
00119636,1,STADT,Gemacht,p,1,6,16,6,p,1,0.5059274150407873,002,2019_Jul_15_1547,iat_vr,5996669353274112,505.9274150407873,0
00119636,1,LAMPE,Gemacht,p,1,7,17,9,p,1,0.9550911739934236,002,2019_Jul_15_1547,iat_vr,5996669353274112,955.0911739934236,0
00119636,1,BAUM,Natur,q,1,8,18,0,q,1,0.9390897739795037,002,2019_Jul_15_1547,iat_vr,5996669353274112,939.0897739795037,0
00119636,1,COMPUTER,Gemacht,p,1,9,19,8,p,1,0.7054280739976093,002,2019_Jul_15_1547,iat_vr,5996669353274112,705.4280739976093,0
00119636,2,GUT,positiv,p,0,0,0,9,p,1,1.705371449002996,002,2019_Jul_15_1547,iat_vr,5996669353274112,1705.371449002996,0
00119636,2,AUSGEZEICHNET,positiv,p,0,1,1,5,p,1,0.6879146880237386,002,2019_Jul_15_1547,iat_vr,5996669353274112,687.9146880237386,0
00119636,2,SCHLIMM,negativ,q,0,2,2,0,q,1,0.6223863179911859,002,2019_Jul_15_1547,iat_vr,5996669353274112,622.3863179911859,0
00119636,2,HERVORRAGEND,positiv,p,0,3,3,7,p,1,0.5383263839758001,002,2019_Jul_15_1547,iat_vr,5996669353274112,538.3263839758001,0
00119636,2,SCHWACH,negativ,q,0,4,4,4,q,1,0.7554518630495295,002,2019_Jul_15_1547,iat_vr,5996669353274112,755.4518630495295,0
00119636,2,POSITIV,positiv,p,0,5,5,8,p,1,0.5386981639894657,002,2019_Jul_15_1547,iat_vr,5996669353274112,538.6981639894657,0
00119636,2,SCHÄDLICH,negativ,q,0,6,6,3,q,1,0.8542707450105809,002,2019_Jul_15_1547,iat_vr,5996669353274112,854.2707450105809,0
00119636,2,EINWANDFREI,positiv,p,0,7,7,6,p,1,0.5536572330165654,002,2019_Jul_15_1547,iat_vr,5996669353274112,553.6572330165654,0
00119636,2,SCHLECHT,negativ,q,0,8,8,1,q,1,0.7038597019854933,002,2019_Jul_15_1547,iat_vr,5996669353274112,703.8597019854933,0
00119636,2,NEGATIV,negativ,q,0,9,9,2,q,1,0.5720312069752254,002,2019_Jul_15_1547,iat_vr,5996669353274112,572.0312069752254,0
00119636,2,EINWANDFREI,positiv,p,1,0,10,6,p,1,0.5547224000329152,002,2019_Jul_15_1547,iat_vr,5996669353274112,554.7224000329152,0
00119636,2,HERVORRAGEND,positiv,p,1,1,11,7,p,1,0.7376376840402372,002,2019_Jul_15_1547,iat_vr,5996669353274112,737.6376840402372,0
00119636,2,NEGATIV,negativ,q,1,2,12,2,q,1,0.8224628850002773,002,2019_Jul_15_1547,iat_vr,5996669353274112,822.4628850002773,0
00119636,2,SCHÄDLICH,negativ,q,1,3,13,3,q,1,0.7217630170052871,002,2019_Jul_15_1547,iat_vr,5996669353274112,721.7630170052871,0
00119636,2,SCHLECHT,negativ,q,1,4,14,1,q,1,0.7554057330125943,002,2019_Jul_15_1547,iat_vr,5996669353274112,755.4057330125943,0
00119636,2,AUSGEZEICHNET,positiv,p,1,5,15,5,p,1,0.5550236339913681,002,2019_Jul_15_1547,iat_vr,5996669353274112,555.0236339913681,0
00119636,2,SCHLIMM,negativ,q,1,6,16,0,q,1,0.55454759899294,002,2019_Jul_15_1547,iat_vr,5996669353274112,554.54759899294,0
00119636,2,SCHWACH,negativ,q,1,7,17,4,q,1,1.5388994790264405,002,2019_Jul_15_1547,iat_vr,5996669353274112,1538.8994790264405,0
00119636,2,POSITIV,positiv,p,1,8,18,8,p,1,0.5551114369882271,002,2019_Jul_15_1547,iat_vr,5996669353274112,555.1114369882271,0
00119636,2,GUT,positiv,p,1,9,19,9,p,1,0.6380267330096103,002,2019_Jul_15_1547,iat_vr,5996669353274112,638.0267330096103,0
00119636,3,GUT,positiv,p,0,0,0,9,p,1,1.1876889929990284,002,2019_Jul_15_1547,iat_vr,5996669353274112,1187.6889929990284,0
00119636,3,SCHWACH,negativ,q,0,1,1,4,q,1,0.7034819250111468,002,2019_Jul_15_1547,iat_vr,5996669353274112,703.4819250111468,0
00119636,3,EINWANDFREI,positiv,p,0,2,2,6,p,1,0.6542006650124677,002,2019_Jul_15_1547,iat_vr,5996669353274112,654.2006650124677,0
00119636,3,SCHLECHT,negativ,q,0,3,3,1,q,1,1.2711973440018483,002,2019_Jul_15_1547,iat_vr,5996669353274112,1271.1973440018483,0
00119636,3,STADT,Gemacht,p,0,4,4,16,p,1,0.6510308689903468,002,2019_Jul_15_1547,iat_vr,5996669353274112,651.0308689903468,0
00119636,3,KLEIDER,Gemacht,p,0,5,5,17,p,1,0.6225066029583104,002,2019_Jul_15_1547,iat_vr,5996669353274112,622.5066029583104,0
00119636,3,LAMPE,Gemacht,p,0,6,6,19,p,1,0.4877729319850914,002,2019_Jul_15_1547,iat_vr,5996669353274112,487.7729319850914,0
00119636,3,COMPUTER,Gemacht,p,0,7,7,18,p,1,0.4713784199557267,002,2019_Jul_15_1547,iat_vr,5996669353274112,471.3784199557267,0
00119636,3,NEGATIV,negativ,q,0,8,8,2,q,1,0.7679967600270174,002,2019_Jul_15_1547,iat_vr,5996669353274112,767.9967600270174,0
00119636,3,GEBÄUDE,Gemacht,p,0,9,9,15,p,1,1.239116157987155,002,2019_Jul_15_1547,iat_vr,5996669353274112,1239.116157987155,0
00119636,3,WASSER,Natur,q,0,10,10,11,q,1,0.7393066189833917,002,2019_Jul_15_1547,iat_vr,5996669353274112,739.3066189833917,0
00119636,3,SCHLIMM,negativ,q,0,11,11,0,q,1,0.8722545810160227,002,2019_Jul_15_1547,iat_vr,5996669353274112,872.2545810160227,0
00119636,3,BLUME,Natur,q,0,12,12,12,q,1,0.5228721830062568,002,2019_Jul_15_1547,iat_vr,5996669353274112,522.8721830062568,0
00119636,3,HERVORRAGEND,positiv,p,0,13,13,7,p,1,0.6039717150270008,002,2019_Jul_15_1547,iat_vr,5996669353274112,603.9717150270008,0
00119636,3,AUSGEZEICHNET,positiv,p,0,14,14,5,p,1,0.5378663500305265,002,2019_Jul_15_1547,iat_vr,5996669353274112,537.8663500305265,0
00119636,3,STEIN,Natur,q,0,15,15,14,q,1,0.8214030649978667,002,2019_Jul_15_1547,iat_vr,5996669353274112,821.4030649978667,0
00119636,3,POSITIV,positiv,p,0,16,16,8,p,1,1.0053144150297157,002,2019_Jul_15_1547,iat_vr,5996669353274112,1005.3144150297157,0
00119636,3,SCHÄDLICH,negativ,q,0,17,17,3,q,1,1.0520694750011899,002,2019_Jul_15_1547,iat_vr,5996669353274112,1052.0694750011899,0
00119636,3,BAUM,Natur,q,0,18,18,10,p,0,0.8717907869722694,002,2019_Jul_15_1547,iat_vr,5996669353274112,871.7907869722694,1
00119636,3,TIER,Natur,q,0,19,19,13,q,1,1.3731907110195607,002,2019_Jul_15_1547,iat_vr,5996669353274112,1373.1907110195607,0
00119636,4,SCHLIMM,negativ,q,0,0,0,0,q,1,0.9039023699588142,002,2019_Jul_15_1547,iat_vr,5996669353274112,903.9023699588142,0
00119636,4,AUSGEZEICHNET,positiv,p,0,1,1,5,p,1,0.5707642190391198,002,2019_Jul_15_1547,iat_vr,5996669353274112,570.7642190391198,0
00119636,4,BAUM,Natur,q,0,2,2,10,q,1,0.5880563409882598,002,2019_Jul_15_1547,iat_vr,5996669353274112,588.0563409882598,0
00119636,4,BLUME,Natur,q,0,3,3,12,q,1,0.4890029089874588,002,2019_Jul_15_1547,iat_vr,5996669353274112,489.0029089874588,0
00119636,4,HERVORRAGEND,positiv,p,0,4,4,7,p,1,0.787858005031012,002,2019_Jul_15_1547,iat_vr,5996669353274112,787.858005031012,0
00119636,4,COMPUTER,Gemacht,p,0,5,5,18,p,1,0.7849429769557901,002,2019_Jul_15_1547,iat_vr,5996669353274112,784.9429769557901,0
00119636,4,SCHÄDLICH,negativ,q,0,6,6,3,q,1,1.2050533660221845,002,2019_Jul_15_1547,iat_vr,5996669353274112,1205.0533660221845,0
00119636,4,WASSER,Natur,q,0,7,7,11,q,1,0.6058609660249203,002,2019_Jul_15_1547,iat_vr,5996669353274112,605.8609660249203,0
00119636,4,LAMPE,Gemacht,p,0,8,8,19,p,1,0.7022395140375011,002,2019_Jul_15_1547,iat_vr,5996669353274112,702.2395140375011,0
00119636,4,EINWANDFREI,positiv,p,0,9,9,6,p,1,0.7384270239854231,002,2019_Jul_15_1547,iat_vr,5996669353274112,738.4270239854231,0
00119636,4,GUT,positiv,p,0,10,10,9,p,1,0.5054516789969057,002,2019_Jul_15_1547,iat_vr,5996669353274112,505.4516789969057,0
00119636,4,SCHWACH,negativ,q,0,11,11,4,q,1,0.7217100830166601,002,2019_Jul_15_1547,iat_vr,5996669353274112,721.7100830166601,0
00119636,4,GEBÄUDE,Gemacht,p,0,12,12,15,p,1,0.6217977899941616,002,2019_Jul_15_1547,iat_vr,5996669353274112,621.7977899941616,0
00119636,4,NEGATIV,negativ,q,0,13,13,2,q,1,1.1712398689705878,002,2019_Jul_15_1547,iat_vr,5996669353274112,1171.2398689705878,0
00119636,4,SCHLECHT,negativ,q,0,14,14,1,q,1,0.6713321740389802,002,2019_Jul_15_1547,iat_vr,5996669353274112,671.3321740389802,0
00119636,4,TIER,Natur,q,0,15,15,13,q,1,0.6719702159753069,002,2019_Jul_15_1547,iat_vr,5996669353274112,671.9702159753069,0
00119636,4,POSITIV,positiv,p,0,16,16,8,p,1,0.7719019480282441,002,2019_Jul_15_1547,iat_vr,5996669353274112,771.9019480282441,0
00119636,4,KLEIDER,Gemacht,p,0,17,17,17,p,1,0.5687023280188441,002,2019_Jul_15_1547,iat_vr,5996669353274112,568.7023280188441,0
00119636,4,STEIN,Natur,q,0,18,18,14,q,1,0.7548423489788547,002,2019_Jul_15_1547,iat_vr,5996669353274112,754.8423489788547,0
00119636,4,STADT,Gemacht,p,0,19,19,16,p,1,0.9052062240079977,002,2019_Jul_15_1547,iat_vr,5996669353274112,905.2062240079977,0
00119636,4,COMPUTER,Gemacht,p,1,0,20,18,p,1,0.5383987629902549,002,2019_Jul_15_1547,iat_vr,5996669353274112,538.3987629902549,0
00119636,4,EINWANDFREI,positiv,p,1,1,21,6,p,1,0.7376486490247771,002,2019_Jul_15_1547,iat_vr,5996669353274112,737.6486490247771,0
00119636,4,BAUM,Natur,q,1,2,22,10,p,0,0.5046024939510971,002,2019_Jul_15_1547,iat_vr,5996669353274112,504.60249395109713,1
00119636,4,WASSER,Natur,q,1,3,23,11,q,1,0.42257694399449974,002,2019_Jul_15_1547,iat_vr,5996669353274112,422.57694399449974,0
00119636,4,BLUME,Natur,q,1,4,24,12,q,1,0.6555250090314075,002,2019_Jul_15_1547,iat_vr,5996669353274112,655.5250090314075,0
00119636,4,SCHLECHT,negativ,q,1,5,25,1,q,1,1.2555045949993655,002,2019_Jul_15_1547,iat_vr,5996669353274112,1255.5045949993655,0
00119636,4,STADT,Gemacht,p,1,6,26,16,p,1,0.6186827469500713,002,2019_Jul_15_1547,iat_vr,5996669353274112,618.6827469500713,0
00119636,4,SCHÄDLICH,negativ,q,1,7,27,3,p,0,0.5874086249968968,002,2019_Jul_15_1547,iat_vr,5996669353274112,587.4086249968968,1
00119636,4,TIER,Natur,q,1,8,28,13,q,1,3.3406815900234506,002,2019_Jul_15_1547,iat_vr,5996669353274112,3340.6815900234506,0
00119636,4,LAMPE,Gemacht,p,1,9,29,19,p,1,0.6359385350369848,002,2019_Jul_15_1547,iat_vr,5996669353274112,635.9385350369848,0
00119636,4,STEIN,Natur,q,1,10,30,14,q,1,0.9704813659773208,002,2019_Jul_15_1547,iat_vr,5996669353274112,970.4813659773208,0
00119636,4,SCHLIMM,negativ,q,1,11,31,0,q,1,0.655372511013411,002,2019_Jul_15_1547,iat_vr,5996669353274112,655.372511013411,0
00119636,4,AUSGEZEICHNET,positiv,p,1,12,32,5,p,1,0.7036094130016863,002,2019_Jul_15_1547,iat_vr,5996669353274112,703.6094130016863,0
00119636,4,POSITIV,positiv,p,1,13,33,8,p,1,1.1056309129926376,002,2019_Jul_15_1547,iat_vr,5996669353274112,1105.6309129926376,0
00119636,4,GEBÄUDE,Gemacht,p,1,14,34,15,p,1,0.6351360829430632,002,2019_Jul_15_1547,iat_vr,5996669353274112,635.1360829430632,0
00119636,4,KLEIDER,Gemacht,p,1,15,35,17,p,1,0.5543410539976321,002,2019_Jul_15_1547,iat_vr,5996669353274112,554.3410539976321,0
00119636,4,GUT,positiv,p,1,16,36,9,p,1,0.6720768469967879,002,2019_Jul_15_1547,iat_vr,5996669353274112,672.0768469967879,0
00119636,4,SCHWACH,negativ,q,1,17,37,4,q,1,0.6204565659863874,002,2019_Jul_15_1547,iat_vr,5996669353274112,620.4565659863874,0
00119636,4,NEGATIV,negativ,q,1,18,38,2,q,1,0.5054165599867702,002,2019_Jul_15_1547,iat_vr,5996669353274112,505.41655998677015,0
00119636,4,HERVORRAGEND,positiv,p,1,19,39,7,p,1,0.7209164540399797,002,2019_Jul_15_1547,iat_vr,5996669353274112,720.9164540399797,0
00119636,5,KLEIDER,Gemacht,q,0,0,0,7,q,1,1.7554490799666382,002,2019_Jul_15_1547,iat_vr,5996669353274112,1755.4490799666382,0
00119636,5,GEBÄUDE,Gemacht,q,0,1,1,5,q,1,0.47206283203558996,002,2019_Jul_15_1547,iat_vr,5996669353274112,472.06283203558996,0
00119636,5,STEIN,Natur,p,0,2,2,4,q,0,0.3872573890257627,002,2019_Jul_15_1547,iat_vr,5996669353274112,387.2573890257627,1
00119636,5,TIER,Natur,p,0,3,3,3,p,1,0.7565196430077776,002,2019_Jul_15_1547,iat_vr,5996669353274112,756.5196430077776,0
00119636,5,BLUME,Natur,p,0,4,4,2,p,1,0.47288807900622487,002,2019_Jul_15_1547,iat_vr,5996669353274112,472.88807900622487,0
00119636,5,COMPUTER,Gemacht,q,0,5,5,8,q,1,0.5887222749879584,002,2019_Jul_15_1547,iat_vr,5996669353274112,588.7222749879584,0
00119636,5,BAUM,Natur,p,0,6,6,0,p,1,1.3362393319839612,002,2019_Jul_15_1547,iat_vr,5996669353274112,1336.2393319839612,0
00119636,5,WASSER,Natur,p,0,7,7,1,p,1,0.6712427570018917,002,2019_Jul_15_1547,iat_vr,5996669353274112,671.2427570018917,0
00119636,5,STADT,Gemacht,q,0,8,8,6,q,1,0.6400693890172988,002,2019_Jul_15_1547,iat_vr,5996669353274112,640.0693890172988,0
00119636,5,LAMPE,Gemacht,q,0,9,9,9,q,1,0.5690538210328668,002,2019_Jul_15_1547,iat_vr,5996669353274112,569.0538210328668,0
00119636,5,BAUM,Natur,p,1,0,10,0,p,1,0.7347965150256641,002,2019_Jul_15_1547,iat_vr,5996669353274112,734.7965150256641,0
00119636,5,WASSER,Natur,p,1,1,11,1,p,1,1.0556671899976209,002,2019_Jul_15_1547,iat_vr,5996669353274112,1055.6671899976209,0
00119636,5,STADT,Gemacht,q,1,2,12,6,q,1,1.3552753969561309,002,2019_Jul_15_1547,iat_vr,5996669353274112,1355.2753969561309,0
00119636,5,COMPUTER,Gemacht,q,1,3,13,8,q,1,0.5369603959843516,002,2019_Jul_15_1547,iat_vr,5996669353274112,536.9603959843516,0
00119636,5,LAMPE,Gemacht,q,1,4,14,9,q,1,0.5560763819958083,002,2019_Jul_15_1547,iat_vr,5996669353274112,556.0763819958083,0
00119636,5,GEBÄUDE,Gemacht,q,1,5,15,5,q,1,0.5880498519982211,002,2019_Jul_15_1547,iat_vr,5996669353274112,588.0498519982211,0
00119636,5,STEIN,Natur,p,1,6,16,4,p,1,0.6887418009573594,002,2019_Jul_15_1547,iat_vr,5996669353274112,688.7418009573594,0
00119636,5,KLEIDER,Gemacht,q,1,7,17,7,p,0,1.0883184730191715,002,2019_Jul_15_1547,iat_vr,5996669353274112,1088.3184730191715,1
00119636,5,TIER,Natur,p,1,8,18,3,p,1,2.5894146519713104,002,2019_Jul_15_1547,iat_vr,5996669353274112,2589.4146519713104,0
00119636,5,BLUME,Natur,p,1,9,19,2,p,1,0.7058210200048052,002,2019_Jul_15_1547,iat_vr,5996669353274112,705.8210200048052,0
00119636,6,SCHÄDLICH,negativ,q,0,0,0,13,p,0,2.2543618389754556,002,2019_Jul_15_1547,iat_vr,5996669353274112,2254.3618389754556,1
00119636,6,AUSGEZEICHNET,positiv,p,0,1,1,15,p,1,1.28712956601521,002,2019_Jul_15_1547,iat_vr,5996669353274112,1287.12956601521,0
00119636,6,POSITIV,positiv,p,0,2,2,18,p,1,0.9009344570222311,002,2019_Jul_15_1547,iat_vr,5996669353274112,900.9344570222311,0
00119636,6,SCHLIMM,negativ,q,0,3,3,10,q,1,0.8053125239675865,002,2019_Jul_15_1547,iat_vr,5996669353274112,805.3125239675865,0
00119636,6,BAUM,Natur,p,0,4,4,0,p,1,0.9723670120001771,002,2019_Jul_15_1547,iat_vr,5996669353274112,972.367012000177,0
00119636,6,BLUME,Natur,p,0,5,5,2,p,1,0.5388158560381271,002,2019_Jul_15_1547,iat_vr,5996669353274112,538.8158560381271,0
00119636,6,SCHWACH,negativ,q,0,6,6,14,q,1,0.7710423159878701,002,2019_Jul_15_1547,iat_vr,5996669353274112,771.0423159878701,0
00119636,6,NEGATIV,negativ,q,0,7,7,12,q,1,0.8376044119941071,002,2019_Jul_15_1547,iat_vr,5996669353274112,837.6044119941071,0
00119636,6,WASSER,Natur,p,0,8,8,1,p,1,0.7719111039768904,002,2019_Jul_15_1547,iat_vr,5996669353274112,771.9111039768904,0
00119636,6,EINWANDFREI,positiv,p,0,9,9,16,p,1,1.3046495710150339,002,2019_Jul_15_1547,iat_vr,5996669353274112,1304.6495710150339,0
00119636,6,COMPUTER,Gemacht,q,0,10,10,8,q,1,0.817824360972736,002,2019_Jul_15_1547,iat_vr,5996669353274112,817.824360972736,0
00119636,6,GEBÄUDE,Gemacht,q,0,11,11,5,q,1,0.5899769369862042,002,2019_Jul_15_1547,iat_vr,5996669353274112,589.9769369862042,0
00119636,6,TIER,Natur,p,0,12,12,3,p,1,1.2065745369764045,002,2019_Jul_15_1547,iat_vr,5996669353274112,1206.5745369764045,0
00119636,6,STEIN,Natur,p,0,13,13,4,p,1,0.652023550006561,002,2019_Jul_15_1547,iat_vr,5996669353274112,652.023550006561,0
00119636,6,LAMPE,Gemacht,q,0,14,14,9,q,1,0.8221340969903395,002,2019_Jul_15_1547,iat_vr,5996669353274112,822.1340969903395,0
00119636,6,SCHLECHT,negativ,q,0,15,15,11,q,1,0.9383869770099409,002,2019_Jul_15_1547,iat_vr,5996669353274112,938.3869770099409,0
00119636,6,KLEIDER,Gemacht,q,0,16,16,7,q,1,1.172496034996584,002,2019_Jul_15_1547,iat_vr,5996669353274112,1172.496034996584,0
00119636,6,HERVORRAGEND,positiv,p,0,17,17,17,p,1,0.6709944519679993,002,2019_Jul_15_1547,iat_vr,5996669353274112,670.9944519679993,0
00119636,6,GUT,positiv,p,0,18,18,19,p,1,0.5373669720138423,002,2019_Jul_15_1547,iat_vr,5996669353274112,537.3669720138423,0
00119636,6,STADT,Gemacht,q,0,19,19,6,q,1,1.0539704500115477,002,2019_Jul_15_1547,iat_vr,5996669353274112,1053.9704500115477,0
00119636,7,BAUM,Natur,p,0,0,0,0,p,1,0.7362625030218624,002,2019_Jul_15_1547,iat_vr,5996669353274112,736.2625030218624,0
00119636,7,WASSER,Natur,p,0,1,1,1,p,1,0.5347067700349726,002,2019_Jul_15_1547,iat_vr,5996669353274112,534.7067700349726,0
00119636,7,SCHLECHT,negativ,q,0,2,2,11,q,1,0.6872356520034373,002,2019_Jul_15_1547,iat_vr,5996669353274112,687.2356520034373,0
00119636,7,EINWANDFREI,positiv,p,0,3,3,16,p,1,0.6376787659828551,002,2019_Jul_15_1547,iat_vr,5996669353274112,637.6787659828551,0
00119636,7,AUSGEZEICHNET,positiv,p,0,4,4,15,p,1,0.6842993500176817,002,2019_Jul_15_1547,iat_vr,5996669353274112,684.2993500176817,0
00119636,7,BLUME,Natur,p,0,5,5,2,p,1,0.6392976790084504,002,2019_Jul_15_1547,iat_vr,5996669353274112,639.2976790084504,0
00119636,7,POSITIV,positiv,p,0,6,6,18,p,1,0.7368386099697091,002,2019_Jul_15_1547,iat_vr,5996669353274112,736.8386099697091,0
00119636,7,HERVORRAGEND,positiv,p,0,7,7,17,p,1,0.5713232430280186,002,2019_Jul_15_1547,iat_vr,5996669353274112,571.3232430280186,0
00119636,7,STEIN,Natur,p,0,8,8,4,p,1,0.6709426589659415,002,2019_Jul_15_1547,iat_vr,5996669353274112,670.9426589659415,0
00119636,7,STADT,Gemacht,q,0,9,9,6,q,1,0.7690698209917173,002,2019_Jul_15_1547,iat_vr,5996669353274112,769.0698209917173,0
00119636,7,SCHWACH,negativ,q,0,10,10,14,q,1,0.6716585120302625,002,2019_Jul_15_1547,iat_vr,5996669353274112,671.6585120302625,0
00119636,7,NEGATIV,negativ,q,0,11,11,12,q,1,0.6338061220012605,002,2019_Jul_15_1547,iat_vr,5996669353274112,633.8061220012605,0
00119636,7,SCHLIMM,negativ,q,0,12,12,10,q,1,0.9869882910279557,002,2019_Jul_15_1547,iat_vr,5996669353274112,986.9882910279557,0
00119636,7,KLEIDER,Gemacht,q,0,13,13,7,q,1,0.6541523959604092,002,2019_Jul_15_1547,iat_vr,5996669353274112,654.1523959604092,0
00119636,7,COMPUTER,Gemacht,q,0,14,14,8,q,1,0.6540887099690735,002,2019_Jul_15_1547,iat_vr,5996669353274112,654.0887099690735,0
00119636,7,GUT,positiv,p,0,15,15,19,p,1,0.8215253300149925,002,2019_Jul_15_1547,iat_vr,5996669353274112,821.5253300149925,0
00119636,7,TIER,Natur,p,0,16,16,3,p,1,1.5544637980055995,002,2019_Jul_15_1547,iat_vr,5996669353274112,1554.4637980055995,0
00119636,7,LAMPE,Gemacht,q,0,17,17,9,q,1,0.6887016880209558,002,2019_Jul_15_1547,iat_vr,5996669353274112,688.7016880209558,0
00119636,7,GEBÄUDE,Gemacht,q,0,18,18,5,q,1,0.6877699500182644,002,2019_Jul_15_1547,iat_vr,5996669353274112,687.7699500182644,0
00119636,7,SCHÄDLICH,negativ,q,0,19,19,13,q,1,0.9718450020300224,002,2019_Jul_15_1547,iat_vr,5996669353274112,971.8450020300224,0
00119636,7,COMPUTER,Gemacht,q,1,0,20,8,q,1,0.5554532639798708,002,2019_Jul_15_1547,iat_vr,5996669353274112,555.4532639798708,0
00119636,7,STEIN,Natur,p,1,1,21,4,p,1,0.8228205459890887,002,2019_Jul_15_1547,iat_vr,5996669353274112,822.8205459890887,0
00119636,7,HERVORRAGEND,positiv,p,1,2,22,17,p,1,0.6703026330214925,002,2019_Jul_15_1547,iat_vr,5996669353274112,670.3026330214925,0
00119636,7,WASSER,Natur,p,1,3,23,1,p,1,0.7047177320346236,002,2019_Jul_15_1547,iat_vr,5996669353274112,704.7177320346236,0
00119636,7,SCHLIMM,negativ,q,1,4,24,10,q,1,1.1353607519995421,002,2019_Jul_15_1547,iat_vr,5996669353274112,1135.3607519995421,0
00119636,7,GUT,positiv,p,1,5,25,19,p,1,0.6377663299790584,002,2019_Jul_15_1547,iat_vr,5996669353274112,637.7663299790584,0
00119636,7,BLUME,Natur,p,1,6,26,2,p,1,1.2897344719967805,002,2019_Jul_15_1547,iat_vr,5996669353274112,1289.7344719967805,0
00119636,7,EINWANDFREI,positiv,p,1,7,27,16,p,1,0.5704755650367588,002,2019_Jul_15_1547,iat_vr,5996669353274112,570.4755650367588,0
00119636,7,STADT,Gemacht,q,1,8,28,6,q,1,0.5875423559919,002,2019_Jul_15_1547,iat_vr,5996669353274112,587.5423559919,0
00119636,7,TIER,Natur,p,1,9,29,3,p,1,0.637680204003118,002,2019_Jul_15_1547,iat_vr,5996669353274112,637.680204003118,0
00119636,7,NEGATIV,negativ,q,1,10,30,12,q,1,1.0054095689556561,002,2019_Jul_15_1547,iat_vr,5996669353274112,1005.4095689556561,0
00119636,7,GEBÄUDE,Gemacht,q,1,11,31,5,q,1,0.6547478270367719,002,2019_Jul_15_1547,iat_vr,5996669353274112,654.7478270367719,0
00119636,7,SCHWACH,negativ,q,1,12,32,14,q,1,1.004605807014741,002,2019_Jul_15_1547,iat_vr,5996669353274112,1004.605807014741,0
00119636,7,SCHÄDLICH,negativ,q,1,13,33,13,q,1,0.921305341005791,002,2019_Jul_15_1547,iat_vr,5996669353274112,921.305341005791,0
00119636,7,POSITIV,positiv,p,1,14,34,18,p,1,0.8356250100187026,002,2019_Jul_15_1547,iat_vr,5996669353274112,835.6250100187026,0
00119636,7,BAUM,Natur,p,1,15,35,0,p,1,1.0399496110039763,002,2019_Jul_15_1547,iat_vr,5996669353274112,1039.9496110039763,0
00119636,7,AUSGEZEICHNET,positiv,p,1,16,36,15,p,1,0.5862758110160939,002,2019_Jul_15_1547,iat_vr,5996669353274112,586.2758110160939,0
00119636,7,SCHLECHT,negativ,q,1,17,37,11,q,1,0.7547133869957179,002,2019_Jul_15_1547,iat_vr,5996669353274112,754.7133869957179,0
00119636,7,LAMPE,Gemacht,q,1,18,38,9,q,1,1.623192659986671,002,2019_Jul_15_1547,iat_vr,5996669353274112,1623.192659986671,0
00119636,7,KLEIDER,Gemacht,q,1,19,39,7,q,1,1.8215641989954747,002,2019_Jul_15_1547,iat_vr,5996669353274112,1821.5641989954747,0
05949000,1,TIER,Natur,q,0,0,0,3,q,1,0.9876866720005637,001,2019_Jun_20_1712,iat_vr,6012526835274385,987.6866720005637,0
05949000,1,WASSER,Natur,q,0,1,1,1,q,1,0.8710243560053641,001,2019_Jun_20_1712,iat_vr,6012526835274385,871.0243560053641,0
05949000,1,STADT,Gemacht,p,0,2,2,6,p,1,0.7672740639973199,001,2019_Jun_20_1712,iat_vr,6012526835274385,767.2740639973199,0
05949000,1,KLEIDER,Gemacht,p,0,3,3,7,p,1,0.7714632569986861,001,2019_Jun_20_1712,iat_vr,6012526835274385,771.4632569986861,0
05949000,1,GEBÄUDE,Gemacht,p,0,4,4,5,p,1,0.8381789380073315,001,2019_Jun_20_1712,iat_vr,6012526835274385,838.1789380073315,0
05949000,1,BAUM,Natur,q,0,5,5,0,q,1,0.5538176700065378,001,2019_Jun_20_1712,iat_vr,6012526835274385,553.8176700065378,0
05949000,1,BLUME,Natur,q,0,6,6,2,q,1,0.6559801140101627,001,2019_Jun_20_1712,iat_vr,6012526835274385,655.9801140101627,0
05949000,1,LAMPE,Gemacht,p,0,7,7,9,p,1,0.7551685840007849,001,2019_Jun_20_1712,iat_vr,6012526835274385,755.1685840007849,0
05949000,1,STEIN,Natur,q,0,8,8,4,q,1,0.5706686030025594,001,2019_Jun_20_1712,iat_vr,6012526835274385,570.6686030025594,0
05949000,1,COMPUTER,Gemacht,p,0,9,9,8,p,1,0.6051633880124427,001,2019_Jun_20_1712,iat_vr,6012526835274385,605.1633880124427,0
05949000,1,WASSER,Natur,q,1,0,10,1,q,1,0.6059214380074991,001,2019_Jun_20_1712,iat_vr,6012526835274385,605.9214380074991,0
05949000,1,STADT,Gemacht,p,1,1,11,6,p,1,0.5881422189995646,001,2019_Jun_20_1712,iat_vr,6012526835274385,588.1422189995646,0
05949000,1,TIER,Natur,q,1,2,12,3,q,1,0.672234464000212,001,2019_Jun_20_1712,iat_vr,6012526835274385,672.234464000212,0
05949000,1,KLEIDER,Gemacht,p,1,3,13,7,p,1,1.0715677269909065,001,2019_Jun_20_1712,iat_vr,6012526835274385,1071.5677269909065,0
05949000,1,STEIN,Natur,q,1,4,14,4,p,0,0.7223095829976955,001,2019_Jun_20_1712,iat_vr,6012526835274385,722.3095829976955,1
05949000,1,GEBÄUDE,Gemacht,p,1,5,15,5,p,1,0.8551331769995159,001,2019_Jun_20_1712,iat_vr,6012526835274385,855.1331769995159,0
05949000,1,COMPUTER,Gemacht,p,1,6,16,8,p,1,0.8718540029949509,001,2019_Jun_20_1712,iat_vr,6012526835274385,871.8540029949509,0
05949000,1,LAMPE,Gemacht,p,1,7,17,9,p,1,0.6388184880051995,001,2019_Jun_20_1712,iat_vr,6012526835274385,638.8184880051995,0
05949000,1,BLUME,Natur,q,1,8,18,2,q,1,0.6891917160101002,001,2019_Jun_20_1712,iat_vr,6012526835274385,689.1917160101002,0
05949000,1,BAUM,Natur,q,1,9,19,0,q,1,0.6359981889982009,001,2019_Jun_20_1712,iat_vr,6012526835274385,635.9981889982009,0
05949000,2,NEGATIV,negativ,q,0,0,0,2,q,1,0.8217501900071511,001,2019_Jun_20_1712,iat_vr,6012526835274385,821.7501900071511,0
05949000,2,SCHLIMM,negativ,q,0,1,1,0,q,1,1.0556468100112397,001,2019_Jun_20_1712,iat_vr,6012526835274385,1055.6468100112397,0
05949000,2,SCHWACH,negativ,q,0,2,2,4,q,1,0.954853234012262,001,2019_Jun_20_1712,iat_vr,6012526835274385,954.853234012262,0
05949000,2,HERVORRAGEND,positiv,p,0,3,3,7,p,1,0.9367363799974555,001,2019_Jun_20_1712,iat_vr,6012526835274385,936.7363799974555,0
05949000,2,GUT,positiv,p,0,4,4,9,p,1,0.672651646003942,001,2019_Jun_20_1712,iat_vr,6012526835274385,672.651646003942,0
05949000,2,POSITIV,positiv,p,0,5,5,8,p,1,0.5219002700032433,001,2019_Jun_20_1712,iat_vr,6012526835274385,521.9002700032433,0
05949000,2,SCHLECHT,negativ,q,0,6,6,1,q,1,0.8386958509945543,001,2019_Jun_20_1712,iat_vr,6012526835274385,838.6958509945543,0
05949000,2,AUSGEZEICHNET,positiv,p,0,7,7,5,p,1,0.7873839439998847,001,2019_Jun_20_1712,iat_vr,6012526835274385,787.3839439998847,0
05949000,2,SCHÄDLICH,negativ,q,0,8,8,3,q,1,0.6544010429934133,001,2019_Jun_20_1712,iat_vr,6012526835274385,654.4010429934133,0
05949000,2,EINWANDFREI,positiv,p,0,9,9,6,p,1,0.8705569789890433,001,2019_Jun_20_1712,iat_vr,6012526835274385,870.5569789890433,0
05949000,2,GUT,positiv,p,1,0,10,9,p,1,0.6393196069984697,001,2019_Jun_20_1712,iat_vr,6012526835274385,639.3196069984697,0
05949000,2,SCHÄDLICH,negativ,q,1,1,11,3,q,1,0.5842499169957591,001,2019_Jun_20_1712,iat_vr,6012526835274385,584.2499169957591,0
05949000,2,POSITIV,positiv,p,1,2,12,8,p,1,0.655485356997815,001,2019_Jun_20_1712,iat_vr,6012526835274385,655.485356997815,0
05949000,2,NEGATIV,negativ,q,1,3,13,2,q,1,0.589035666998825,001,2019_Jun_20_1712,iat_vr,6012526835274385,589.035666998825,0
05949000,2,HERVORRAGEND,positiv,p,1,4,14,7,p,1,1.2043940260045929,001,2019_Jun_20_1712,iat_vr,6012526835274385,1204.394026004593,0
05949000,2,SCHLECHT,negativ,q,1,5,15,1,q,1,0.6691073010006221,001,2019_Jun_20_1712,iat_vr,6012526835274385,669.1073010006221,0
05949000,2,SCHWACH,negativ,q,1,6,16,4,q,1,0.7222925989917712,001,2019_Jun_20_1712,iat_vr,6012526835274385,722.2925989917712,0
05949000,2,AUSGEZEICHNET,positiv,p,1,7,17,5,p,1,0.767658990007476,001,2019_Jun_20_1712,iat_vr,6012526835274385,767.658990007476,0
05949000,2,SCHLIMM,negativ,q,1,8,18,0,q,1,0.8543761299952166,001,2019_Jun_20_1712,iat_vr,6012526835274385,854.3761299952166,0
05949000,2,EINWANDFREI,positiv,p,1,9,19,6,p,1,0.6381644299981417,001,2019_Jun_20_1712,iat_vr,6012526835274385,638.1644299981417,0
05949000,3,NEGATIV,negativ,q,0,0,0,2,q,1,0.7881038740015356,001,2019_Jun_20_1712,iat_vr,6012526835274385,788.1038740015356,0
05949000,3,AUSGEZEICHNET,positiv,p,0,1,1,5,p,1,1.3048599850008031,001,2019_Jun_20_1712,iat_vr,6012526835274385,1304.8599850008031,0
05949000,3,SCHÄDLICH,negativ,q,0,2,2,3,q,1,1.8394516199914506,001,2019_Jun_20_1712,iat_vr,6012526835274385,1839.4516199914506,0
05949000,3,STEIN,Natur,q,0,3,3,14,q,1,1.0896140010008821,001,2019_Jun_20_1712,iat_vr,6012526835274385,1089.6140010008821,0
05949000,3,WASSER,Natur,q,0,4,4,11,q,1,0.7555350879993057,001,2019_Jun_20_1712,iat_vr,6012526835274385,755.5350879993057,0
05949000,3,BLUME,Natur,q,0,5,5,12,q,1,0.8025833690044237,001,2019_Jun_20_1712,iat_vr,6012526835274385,802.5833690044237,0
05949000,3,TIER,Natur,q,0,6,6,13,q,1,0.669932926990441,001,2019_Jun_20_1712,iat_vr,6012526835274385,669.932926990441,0
05949000,3,SCHLECHT,negativ,q,0,7,7,1,q,1,0.7723315809998894,001,2019_Jun_20_1712,iat_vr,6012526835274385,772.3315809998894,0
05949000,3,HERVORRAGEND,positiv,p,0,8,8,7,p,1,0.788119919001474,001,2019_Jun_20_1712,iat_vr,6012526835274385,788.119919001474,0
05949000,3,BAUM,Natur,q,0,9,9,10,q,1,0.6225579590100097,001,2019_Jun_20_1712,iat_vr,6012526835274385,622.5579590100097,0
05949000,3,COMPUTER,Gemacht,p,0,10,10,18,p,1,0.6043111110047903,001,2019_Jun_20_1712,iat_vr,6012526835274385,604.3111110047903,0
05949000,3,KLEIDER,Gemacht,p,0,11,11,17,p,1,0.9554116049985169,001,2019_Jun_20_1712,iat_vr,6012526835274385,955.4116049985169,0
05949000,3,SCHLIMM,negativ,q,0,12,12,0,q,1,0.7382086829893524,001,2019_Jun_20_1712,iat_vr,6012526835274385,738.2086829893524,0
05949000,3,LAMPE,Gemacht,p,0,13,13,19,p,1,0.9059697859920561,001,2019_Jun_20_1712,iat_vr,6012526835274385,905.9697859920561,0
05949000,3,STADT,Gemacht,p,0,14,14,16,p,1,0.9891596929955995,001,2019_Jun_20_1712,iat_vr,6012526835274385,989.1596929955995,0
05949000,3,GUT,positiv,p,0,15,15,9,p,1,0.7043114699918078,001,2019_Jun_20_1712,iat_vr,6012526835274385,704.3114699918078,0
05949000,3,POSITIV,positiv,p,0,16,16,8,p,1,0.7214355220057769,001,2019_Jun_20_1712,iat_vr,6012526835274385,721.4355220057769,0
05949000,3,GEBÄUDE,Gemacht,p,0,17,17,15,q,0,0.9382759919972159,001,2019_Jun_20_1712,iat_vr,6012526835274385,938.2759919972159,1
05949000,3,EINWANDFREI,positiv,p,0,18,18,6,p,1,0.7215246169944294,001,2019_Jun_20_1712,iat_vr,6012526835274385,721.5246169944294,0
05949000,3,SCHWACH,negativ,q,0,19,19,4,q,1,0.9890561619977234,001,2019_Jun_20_1712,iat_vr,6012526835274385,989.0561619977234,0
05949000,4,KLEIDER,Gemacht,p,0,0,0,17,p,1,0.7680066650063964,001,2019_Jun_20_1712,iat_vr,6012526835274385,768.0066650063964,0
05949000,4,GEBÄUDE,Gemacht,p,0,1,1,15,p,1,0.8060162659967318,001,2019_Jun_20_1712,iat_vr,6012526835274385,806.0162659967318,0
05949000,4,AUSGEZEICHNET,positiv,p,0,2,2,5,p,1,0.7547791289980523,001,2019_Jun_20_1712,iat_vr,6012526835274385,754.7791289980523,0
05949000,4,SCHWACH,negativ,q,0,3,3,4,q,1,0.7725781170011032,001,2019_Jun_20_1712,iat_vr,6012526835274385,772.5781170011032,0
05949000,4,HERVORRAGEND,positiv,p,0,4,4,7,p,1,0.6377404520026175,001,2019_Jun_20_1712,iat_vr,6012526835274385,637.7404520026175,0
05949000,4,EINWANDFREI,positiv,p,0,5,5,6,p,1,1.188309688004665,001,2019_Jun_20_1712,iat_vr,6012526835274385,1188.309688004665,0
05949000,4,SCHLIMM,negativ,q,0,6,6,0,q,1,0.8186775859940099,001,2019_Jun_20_1712,iat_vr,6012526835274385,818.6775859940099,0
05949000,4,NEGATIV,negativ,q,0,7,7,2,q,1,0.7385747990047093,001,2019_Jun_20_1712,iat_vr,6012526835274385,738.5747990047093,0
05949000,4,LAMPE,Gemacht,p,0,8,8,19,p,1,1.7722336479928344,001,2019_Jun_20_1712,iat_vr,6012526835274385,1772.2336479928344,0
05949000,4,WASSER,Natur,q,0,9,9,11,q,1,0.8215937460045097,001,2019_Jun_20_1712,iat_vr,6012526835274385,821.5937460045097,0
05949000,4,SCHÄDLICH,negativ,q,0,10,10,3,q,1,1.1548750189977,001,2019_Jun_20_1712,iat_vr,6012526835274385,1154.8750189977,0
05949000,4,BAUM,Natur,q,0,11,11,10,q,1,0.7897234260017285,001,2019_Jun_20_1712,iat_vr,6012526835274385,789.7234260017285,0
05949000,4,STEIN,Natur,q,0,12,12,14,q,1,0.6051567219983554,001,2019_Jun_20_1712,iat_vr,6012526835274385,605.1567219983554,0
05949000,4,TIER,Natur,q,0,13,13,13,q,1,0.7044145419931738,001,2019_Jun_20_1712,iat_vr,6012526835274385,704.4145419931738,0
05949000,4,SCHLECHT,negativ,q,0,14,14,1,q,1,0.7511215990089113,001,2019_Jun_20_1712,iat_vr,6012526835274385,751.1215990089113,0
05949000,4,BLUME,Natur,q,0,15,15,12,q,1,1.7047513779980363,001,2019_Jun_20_1712,iat_vr,6012526835274385,1704.7513779980363,0
05949000,4,STADT,Gemacht,p,0,16,16,16,p,1,0.6551990210136864,001,2019_Jun_20_1712,iat_vr,6012526835274385,655.1990210136864,0
05949000,4,COMPUTER,Gemacht,p,0,17,17,18,p,1,0.554200774000492,001,2019_Jun_20_1712,iat_vr,6012526835274385,554.200774000492,0
05949000,4,POSITIV,positiv,p,0,18,18,8,p,1,0.5704908360057743,001,2019_Jun_20_1712,iat_vr,6012526835274385,570.4908360057743,0
05949000,4,GUT,positiv,p,0,19,19,9,p,1,1.0056507070112275,001,2019_Jun_20_1712,iat_vr,6012526835274385,1005.6507070112275,0
05949000,4,POSITIV,positiv,p,1,0,20,8,p,1,0.6884573689894751,001,2019_Jun_20_1712,iat_vr,6012526835274385,688.4573689894751,0
05949000,4,AUSGEZEICHNET,positiv,p,1,1,21,5,p,1,0.5873553889978211,001,2019_Jun_20_1712,iat_vr,6012526835274385,587.3553889978211,0
05949000,4,TIER,Natur,q,1,2,22,13,q,1,1.5547157340042759,001,2019_Jun_20_1712,iat_vr,6012526835274385,1554.7157340042759,0
05949000,4,STADT,Gemacht,p,1,3,23,16,p,1,0.6717463259992655,001,2019_Jun_20_1712,iat_vr,6012526835274385,671.7463259992655,0
05949000,4,SCHÄDLICH,negativ,q,1,4,24,3,q,1,1.1353223829937633,001,2019_Jun_20_1712,iat_vr,6012526835274385,1135.3223829937633,0
05949000,4,GUT,positiv,p,1,5,25,9,p,1,0.606201158996555,001,2019_Jun_20_1712,iat_vr,6012526835274385,606.201158996555,0
05949000,4,NEGATIV,negativ,q,1,6,26,2,q,1,0.6550624520023121,001,2019_Jun_20_1712,iat_vr,6012526835274385,655.06245200231206,0
05949000,4,KLEIDER,Gemacht,p,1,7,27,17,p,1,1.1875607620022492,001,2019_Jun_20_1712,iat_vr,6012526835274385,1187.5607620022492,0
05949000,4,HERVORRAGEND,positiv,p,1,8,28,7,p,1,0.7038721349963453,001,2019_Jun_20_1712,iat_vr,6012526835274385,703.8721349963453,0
05949000,4,STEIN,Natur,q,1,9,29,14,q,1,0.8544546019984409,001,2019_Jun_20_1712,iat_vr,6012526835274385,854.4546019984409,0
05949000,4,SCHLECHT,negativ,q,1,10,30,1,q,1,0.7699209599959431,001,2019_Jun_20_1712,iat_vr,6012526835274385,769.9209599959431,0
05949000,4,EINWANDFREI,positiv,p,1,11,31,6,p,1,1.055078710996895,001,2019_Jun_20_1712,iat_vr,6012526835274385,1055.078710996895,0
05949000,4,COMPUTER,Gemacht,p,1,12,32,18,p,1,0.7191999159986153,001,2019_Jun_20_1712,iat_vr,6012526835274385,719.1999159986153,0
05949000,4,WASSER,Natur,q,1,13,33,11,q,1,0.8891754000069341,001,2019_Jun_20_1712,iat_vr,6012526835274385,889.1754000069341,0
05949000,4,BLUME,Natur,q,1,14,34,12,q,1,0.8190345260081813,001,2019_Jun_20_1712,iat_vr,6012526835274385,819.0345260081813,0
05949000,4,BAUM,Natur,q,1,15,35,10,q,1,0.7228464459913084,001,2019_Jun_20_1712,iat_vr,6012526835274385,722.8464459913084,0
05949000,4,SCHWACH,negativ,q,1,16,36,4,q,1,0.9218236540036742,001,2019_Jun_20_1712,iat_vr,6012526835274385,921.8236540036742,0
05949000,4,GEBÄUDE,Gemacht,p,1,17,37,15,p,1,0.738872870002524,001,2019_Jun_20_1712,iat_vr,6012526835274385,738.872870002524,0
05949000,4,LAMPE,Gemacht,p,1,18,38,19,p,1,0.586965586990118,001,2019_Jun_20_1712,iat_vr,6012526835274385,586.965586990118,0
05949000,4,SCHLIMM,negativ,q,1,19,39,0,q,1,0.85554381700058,001,2019_Jun_20_1712,iat_vr,6012526835274385,855.54381700058,0
05949000,5,GEBÄUDE,Gemacht,q,0,0,0,5,q,1,1.2216875330050243,001,2019_Jun_20_1712,iat_vr,6012526835274385,1221.6875330050243,0
05949000,5,STADT,Gemacht,q,0,1,1,6,q,1,0.7023900740023237,001,2019_Jun_20_1712,iat_vr,6012526835274385,702.3900740023237,0
05949000,5,KLEIDER,Gemacht,q,0,2,2,7,q,1,0.6889060480025364,001,2019_Jun_20_1712,iat_vr,6012526835274385,688.9060480025364,0
05949000,5,BLUME,Natur,p,0,3,3,2,p,1,0.7062431649974314,001,2019_Jun_20_1712,iat_vr,6012526835274385,706.2431649974314,0
05949000,5,LAMPE,Gemacht,q,0,4,4,9,p,0,0.43916066900419537,001,2019_Jun_20_1712,iat_vr,6012526835274385,439.16066900419537,1
05949000,5,TIER,Natur,p,0,5,5,3,p,1,1.206862563994946,001,2019_Jun_20_1712,iat_vr,6012526835274385,1206.862563994946,0
05949000,5,COMPUTER,Gemacht,q,0,6,6,8,q,1,0.9377275059960084,001,2019_Jun_20_1712,iat_vr,6012526835274385,937.7275059960084,0
05949000,5,WASSER,Natur,p,0,7,7,1,p,1,0.8061130480054999,001,2019_Jun_20_1712,iat_vr,6012526835274385,806.1130480054999,0
05949000,5,STEIN,Natur,p,0,8,8,4,p,1,0.6887927130010212,001,2019_Jun_20_1712,iat_vr,6012526835274385,688.7927130010212,0
05949000,5,BAUM,Natur,p,0,9,9,0,p,1,0.5548324600094929,001,2019_Jun_20_1712,iat_vr,6012526835274385,554.8324600094929,0
05949000,5,BLUME,Natur,p,1,0,10,2,p,1,0.5708044479979435,001,2019_Jun_20_1712,iat_vr,6012526835274385,570.8044479979435,0
05949000,5,STADT,Gemacht,q,1,1,11,6,q,1,0.6885718209960032,001,2019_Jun_20_1712,iat_vr,6012526835274385,688.5718209960032,0
05949000,5,LAMPE,Gemacht,q,1,2,12,9,q,1,0.6037777219898999,001,2019_Jun_20_1712,iat_vr,6012526835274385,603.7777219898999,0
05949000,5,KLEIDER,Gemacht,q,1,3,13,7,q,1,0.6043855680036359,001,2019_Jun_20_1712,iat_vr,6012526835274385,604.3855680036359,0
05949000,5,COMPUTER,Gemacht,q,1,4,14,8,q,1,0.7380022389988881,001,2019_Jun_20_1712,iat_vr,6012526835274385,738.0022389988881,0
05949000,5,STEIN,Natur,p,1,5,15,4,p,1,0.6384357360075228,001,2019_Jun_20_1712,iat_vr,6012526835274385,638.4357360075228,0
05949000,5,WASSER,Natur,p,1,6,16,1,p,1,0.4706119909969857,001,2019_Jun_20_1712,iat_vr,6012526835274385,470.6119909969857,0
05949000,5,GEBÄUDE,Gemacht,q,1,7,17,5,q,1,0.6705838620109716,001,2019_Jun_20_1712,iat_vr,6012526835274385,670.5838620109716,0
05949000,5,BAUM,Natur,p,1,8,18,0,p,1,0.5223319060023641,001,2019_Jun_20_1712,iat_vr,6012526835274385,522.3319060023641,0
05949000,5,TIER,Natur,p,1,9,19,3,p,1,0.8397551449888851,001,2019_Jun_20_1712,iat_vr,6012526835274385,839.7551449888851,0
05949000,6,BAUM,Natur,p,0,0,0,0,p,1,1.637677396996878,001,2019_Jun_20_1712,iat_vr,6012526835274385,1637.677396996878,0
05949000,6,STADT,Gemacht,q,0,1,1,6,q,1,1.3730656989937415,001,2019_Jun_20_1712,iat_vr,6012526835274385,1373.0656989937415,0
05949000,6,EINWANDFREI,positiv,p,0,2,2,16,p,1,1.4892045340093318,001,2019_Jun_20_1712,iat_vr,6012526835274385,1489.2045340093318,0
05949000,6,COMPUTER,Gemacht,q,0,3,3,8,q,1,2.3385847989993636,001,2019_Jun_20_1712,iat_vr,6012526835274385,2338.5847989993636,0
05949000,6,GEBÄUDE,Gemacht,q,0,4,4,5,q,1,0.9881537350011058,001,2019_Jun_20_1712,iat_vr,6012526835274385,988.1537350011058,0
05949000,6,GUT,positiv,p,0,5,5,19,p,1,0.8234705689974362,001,2019_Jun_20_1712,iat_vr,6012526835274385,823.4705689974362,0
05949000,6,KLEIDER,Gemacht,q,0,6,6,7,q,1,0.9039446770038921,001,2019_Jun_20_1712,iat_vr,6012526835274385,903.9446770038921,0
05949000,6,POSITIV,positiv,p,0,7,7,18,p,1,0.8042541869945126,001,2019_Jun_20_1712,iat_vr,6012526835274385,804.2541869945126,0
05949000,6,SCHLECHT,negativ,q,0,8,8,11,q,1,0.7883464320038911,001,2019_Jun_20_1712,iat_vr,6012526835274385,788.3464320038911,0
05949000,6,NEGATIV,negativ,q,0,9,9,12,q,1,0.6048967700044159,001,2019_Jun_20_1712,iat_vr,6012526835274385,604.8967700044159,0
05949000,6,TIER,Natur,p,0,10,10,3,p,1,0.8729670909960987,001,2019_Jun_20_1712,iat_vr,6012526835274385,872.9670909960987,0
05949000,6,STEIN,Natur,p,0,11,11,4,p,1,0.635546694000368,001,2019_Jun_20_1712,iat_vr,6012526835274385,635.546694000368,0
05949000,6,SCHWACH,negativ,q,0,12,12,14,q,1,0.6889083730056882,001,2019_Jun_20_1712,iat_vr,6012526835274385,688.9083730056882,0
05949000,6,AUSGEZEICHNET,positiv,p,0,13,13,15,p,1,0.6547067259962205,001,2019_Jun_20_1712,iat_vr,6012526835274385,654.7067259962205,0
05949000,6,SCHLIMM,negativ,q,0,14,14,10,q,1,0.7047810489893891,001,2019_Jun_20_1712,iat_vr,6012526835274385,704.7810489893891,0
05949000,6,SCHÄDLICH,negativ,q,0,15,15,13,q,1,1.255018932002713,001,2019_Jun_20_1712,iat_vr,6012526835274385,1255.018932002713,0
05949000,6,BLUME,Natur,p,0,16,16,2,p,1,0.8388029830093728,001,2019_Jun_20_1712,iat_vr,6012526835274385,838.8029830093728,0
05949000,6,HERVORRAGEND,positiv,p,0,17,17,17,p,1,0.7526685199991334,001,2019_Jun_20_1712,iat_vr,6012526835274385,752.6685199991334,0
05949000,6,LAMPE,Gemacht,q,0,18,18,9,q,1,0.9552902099967469,001,2019_Jun_20_1712,iat_vr,6012526835274385,955.2902099967469,0
05949000,6,WASSER,Natur,p,0,19,19,1,p,1,0.6537662170012482,001,2019_Jun_20_1712,iat_vr,6012526835274385,653.7662170012482,0
05949000,7,BLUME,Natur,p,0,0,0,2,p,1,1.0381453349982621,001,2019_Jun_20_1712,iat_vr,6012526835274385,1038.1453349982621,0
05949000,7,TIER,Natur,p,0,1,1,3,p,1,0.8563358610117575,001,2019_Jun_20_1712,iat_vr,6012526835274385,856.3358610117575,0
05949000,7,STEIN,Natur,p,0,2,2,4,p,1,0.688219482995919,001,2019_Jun_20_1712,iat_vr,6012526835274385,688.219482995919,0
05949000,7,SCHWACH,negativ,q,0,3,3,14,q,1,0.8338696279970463,001,2019_Jun_20_1712,iat_vr,6012526835274385,833.8696279970463,0
05949000,7,GEBÄUDE,Gemacht,q,0,4,4,5,q,1,0.7554709680116503,001,2019_Jun_20_1712,iat_vr,6012526835274385,755.4709680116503,0
05949000,7,HERVORRAGEND,positiv,p,0,5,5,17,p,1,0.8843346000066958,001,2019_Jun_20_1712,iat_vr,6012526835274385,884.3346000066958,0
05949000,7,KLEIDER,Gemacht,q,0,6,6,7,q,1,0.7554268059902824,001,2019_Jun_20_1712,iat_vr,6012526835274385,755.4268059902824,0
05949000,7,LAMPE,Gemacht,q,0,7,7,9,q,1,0.7527472059882712,001,2019_Jun_20_1712,iat_vr,6012526835274385,752.7472059882712,0
05949000,7,COMPUTER,Gemacht,q,0,8,8,8,q,1,0.6723282780003501,001,2019_Jun_20_1712,iat_vr,6012526835274385,672.3282780003501,0
05949000,7,SCHLIMM,negativ,q,0,9,9,10,q,1,1.3895993070036639,001,2019_Jun_20_1712,iat_vr,6012526835274385,1389.5993070036639,0
05949000,7,STADT,Gemacht,q,0,10,10,6,q,1,0.7043887000036193,001,2019_Jun_20_1712,iat_vr,6012526835274385,704.3887000036193,0
05949000,7,WASSER,Natur,p,0,11,11,1,p,1,0.572372811002424,001,2019_Jun_20_1712,iat_vr,6012526835274385,572.372811002424,0
05949000,7,BAUM,Natur,p,0,12,12,0,p,1,0.5038882469962118,001,2019_Jun_20_1712,iat_vr,6012526835274385,503.8882469962118,0
05949000,7,SCHÄDLICH,negativ,q,0,13,13,13,q,1,0.7052055119856959,001,2019_Jun_20_1712,iat_vr,6012526835274385,705.2055119856959,0
05949000,7,EINWANDFREI,positiv,p,0,14,14,16,p,1,0.6052395029983018,001,2019_Jun_20_1712,iat_vr,6012526835274385,605.2395029983018,0
05949000,7,AUSGEZEICHNET,positiv,p,0,15,15,15,p,1,0.504207171004964,001,2019_Jun_20_1712,iat_vr,6012526835274385,504.20717100496404,0
05949000,7,POSITIV,positiv,p,0,16,16,18,p,1,0.6011297219956759,001,2019_Jun_20_1712,iat_vr,6012526835274385,601.1297219956759,0
05949000,7,SCHLECHT,negativ,q,0,17,17,11,q,1,0.6372211179987062,001,2019_Jun_20_1712,iat_vr,6012526835274385,637.2211179987062,0
05949000,7,NEGATIV,negativ,q,0,18,18,12,p,0,0.7384587729902705,001,2019_Jun_20_1712,iat_vr,6012526835274385,738.4587729902705,1
05949000,7,GUT,positiv,p,0,19,19,19,p,1,0.6710064429935301,001,2019_Jun_20_1712,iat_vr,6012526835274385,671.0064429935301,0
05949000,7,HERVORRAGEND,positiv,p,1,0,20,17,p,1,0.7375628390000202,001,2019_Jun_20_1712,iat_vr,6012526835274385,737.5628390000202,0
05949000,7,SCHWACH,negativ,q,1,1,21,14,p,0,0.47200074000284076,001,2019_Jun_20_1712,iat_vr,6012526835274385,472.00074000284076,1
05949000,7,EINWANDFREI,positiv,p,1,2,22,16,p,1,0.970910089003155,001,2019_Jun_20_1712,iat_vr,6012526835274385,970.910089003155,0
05949000,7,KLEIDER,Gemacht,q,1,3,23,7,p,0,0.9889413209893974,001,2019_Jun_20_1712,iat_vr,6012526835274385,988.9413209893974,1
05949000,7,SCHÄDLICH,negativ,q,1,4,24,13,q,1,1.251857001989265,001,2019_Jun_20_1712,iat_vr,6012526835274385,1251.857001989265,0
05949000,7,POSITIV,positiv,p,1,5,25,18,p,1,0.7726291059952928,001,2019_Jun_20_1712,iat_vr,6012526835274385,772.6291059952928,0
05949000,7,WASSER,Natur,p,1,6,26,1,p,1,0.538120445999084,001,2019_Jun_20_1712,iat_vr,6012526835274385,538.120445999084,0
05949000,7,GUT,positiv,p,1,7,27,19,p,1,0.4547135960019659,001,2019_Jun_20_1712,iat_vr,6012526835274385,454.7135960019659,0
05949000,7,STEIN,Natur,p,1,8,28,4,p,1,0.5385155830008443,001,2019_Jun_20_1712,iat_vr,6012526835274385,538.5155830008443,0
05949000,7,TIER,Natur,p,1,9,29,3,p,1,1.3733827669930179,001,2019_Jun_20_1712,iat_vr,6012526835274385,1373.3827669930179,0
05949000,7,BAUM,Natur,p,1,10,30,0,p,1,0.7895426199975191,001,2019_Jun_20_1712,iat_vr,6012526835274385,789.5426199975191,0
05949000,7,LAMPE,Gemacht,q,1,11,31,9,q,1,0.7056840709992684,001,2019_Jun_20_1712,iat_vr,6012526835274385,705.6840709992684,0
05949000,7,AUSGEZEICHNET,positiv,p,1,12,32,15,p,1,0.7876835560018662,001,2019_Jun_20_1712,iat_vr,6012526835274385,787.6835560018662,0
05949000,7,SCHLECHT,negativ,q,1,13,33,11,q,1,0.5369723210023949,001,2019_Jun_20_1712,iat_vr,6012526835274385,536.9723210023949,0
05949000,7,STADT,Gemacht,q,1,14,34,6,q,1,1.3229198470071424,001,2019_Jun_20_1712,iat_vr,6012526835274385,1322.9198470071424,0
05949000,7,GEBÄUDE,Gemacht,q,1,15,35,5,q,1,0.5724407700035954,001,2019_Jun_20_1712,iat_vr,6012526835274385,572.4407700035954,0
05949000,7,COMPUTER,Gemacht,q,1,16,36,8,q,1,0.5221938390022842,001,2019_Jun_20_1712,iat_vr,6012526835274385,522.1938390022842,0
05949000,7,BLUME,Natur,p,1,17,37,2,p,1,0.7386034939991077,001,2019_Jun_20_1712,iat_vr,6012526835274385,738.6034939991077,0
05949000,7,NEGATIV,negativ,q,1,18,38,12,q,1,0.7217861079989234,001,2019_Jun_20_1712,iat_vr,6012526835274385,721.7861079989234,0
05949000,7,SCHLIMM,negativ,q,1,19,39,10,q,1,0.8554828359920066,001,2019_Jun_20_1712,iat_vr,6012526835274385,855.4828359920066,0
05949000,1,GEBÄUDE,Gemacht,p,0,0,0,5,p,1,0.9384373130014865,002,2019_Jun_20_1739,iat_vr,5991865383707187,938.4373130014865,0
05949000,1,LAMPE,Gemacht,p,0,1,1,9,p,1,0.654561275994638,002,2019_Jun_20_1739,iat_vr,5991865383707187,654.561275994638,0
05949000,1,STADT,Gemacht,p,0,2,2,6,p,1,0.05352789899916388,002,2019_Jun_20_1739,iat_vr,5991865383707187,53.52789899916388,0
05949000,1,BAUM,Natur,q,0,3,3,0,q,1,0.7063830730039626,002,2019_Jun_20_1739,iat_vr,5991865383707187,706.3830730039626,0
05949000,1,KLEIDER,Gemacht,p,0,4,4,7,p,1,0.8211896470020292,002,2019_Jun_20_1739,iat_vr,5991865383707187,821.1896470020292,0
05949000,1,STEIN,Natur,q,0,5,5,4,q,1,0.48805263699614443,002,2019_Jun_20_1739,iat_vr,5991865383707187,488.05263699614443,0
05949000,1,TIER,Natur,q,0,6,6,3,q,1,0.3890872079937253,002,2019_Jun_20_1739,iat_vr,5991865383707187,389.0872079937253,0
05949000,1,BLUME,Natur,q,0,7,7,2,q,1,0.56898111999908,002,2019_Jun_20_1739,iat_vr,5991865383707187,568.98111999908,0
05949000,1,WASSER,Natur,q,0,8,8,1,q,1,0.5874610699975165,002,2019_Jun_20_1739,iat_vr,5991865383707187,587.4610699975165,0
05949000,1,COMPUTER,Gemacht,p,0,9,9,8,p,1,0.9039914169989061,002,2019_Jun_20_1739,iat_vr,5991865383707187,903.9914169989061,0
05949000,1,LAMPE,Gemacht,p,1,0,10,9,p,1,0.6731526730000041,002,2019_Jun_20_1739,iat_vr,5991865383707187,673.1526730000041,0
05949000,1,BLUME,Natur,q,1,1,11,2,q,1,0.6227898200013442,002,2019_Jun_20_1739,iat_vr,5991865383707187,622.7898200013442,0
05949000,1,KLEIDER,Gemacht,p,1,2,12,7,p,1,0.5724340480082901,002,2019_Jun_20_1739,iat_vr,5991865383707187,572.4340480082901,0
05949000,1,BAUM,Natur,q,1,3,13,0,q,1,0.6225365249993047,002,2019_Jun_20_1739,iat_vr,5991865383707187,622.5365249993047,0
05949000,1,STEIN,Natur,q,1,4,14,4,p,0,1.6896552510006586,002,2019_Jun_20_1739,iat_vr,5991865383707187,1689.6552510006586,1
05949000,1,WASSER,Natur,q,1,5,15,1,q,1,0.6560275829979219,002,2019_Jun_20_1739,iat_vr,5991865383707187,656.0275829979219,0
05949000,1,STADT,Gemacht,p,1,6,16,6,p,1,0.5052909579972038,002,2019_Jun_20_1739,iat_vr,5991865383707187,505.2909579972038,0
05949000,1,COMPUTER,Gemacht,p,1,7,17,8,p,1,0.6387341719964752,002,2019_Jun_20_1739,iat_vr,5991865383707187,638.7341719964752,0
05949000,1,GEBÄUDE,Gemacht,p,1,8,18,5,p,1,0.6720693249953911,002,2019_Jun_20_1739,iat_vr,5991865383707187,672.0693249953911,0
05949000,1,TIER,Natur,q,1,9,19,3,q,1,0.6225278199999593,002,2019_Jun_20_1739,iat_vr,5991865383707187,622.5278199999593,0
05949000,2,POSITIV,positiv,p,0,0,0,8,p,1,0.8366929549956694,002,2019_Jun_20_1739,iat_vr,5991865383707187,836.6929549956694,0
05949000,2,NEGATIV,negativ,q,0,1,1,2,q,1,0.45550737099256366,002,2019_Jun_20_1739,iat_vr,5991865383707187,455.50737099256366,0
05949000,2,SCHWACH,negativ,q,0,2,2,4,q,1,0.638443896008539,002,2019_Jun_20_1739,iat_vr,5991865383707187,638.443896008539,0
05949000,2,SCHLECHT,negativ,q,0,3,3,1,q,1,0.5544914860074641,002,2019_Jun_20_1739,iat_vr,5991865383707187,554.4914860074641,0
05949000,2,AUSGEZEICHNET,positiv,p,0,4,4,5,p,1,0.5381610540061956,002,2019_Jun_20_1739,iat_vr,5991865383707187,538.1610540061956,0
05949000,2,GUT,positiv,p,0,5,5,9,p,1,0.6551672100031283,002,2019_Jun_20_1739,iat_vr,5991865383707187,655.1672100031283,0
05949000,2,SCHÄDLICH,negativ,q,0,6,6,3,q,1,0.6053029319882626,002,2019_Jun_20_1739,iat_vr,5991865383707187,605.3029319882626,0
05949000,2,EINWANDFREI,positiv,p,0,7,7,6,p,1,0.6708170929923654,002,2019_Jun_20_1739,iat_vr,5991865383707187,670.8170929923654,0
05949000,2,SCHLIMM,negativ,q,0,8,8,0,q,1,0.6390950089989929,002,2019_Jun_20_1739,iat_vr,5991865383707187,639.0950089989929,0
05949000,2,HERVORRAGEND,positiv,p,0,9,9,7,p,1,0.5703234449902084,002,2019_Jun_20_1739,iat_vr,5991865383707187,570.3234449902084,0
05949000,2,SCHLIMM,negativ,q,1,0,10,0,q,1,0.639198684002622,002,2019_Jun_20_1739,iat_vr,5991865383707187,639.198684002622,0
05949000,2,NEGATIV,negativ,q,1,1,11,2,q,1,0.6719357460096944,002,2019_Jun_20_1739,iat_vr,5991865383707187,671.9357460096944,0
05949000,2,AUSGEZEICHNET,positiv,p,1,2,12,5,p,1,0.5044427899993025,002,2019_Jun_20_1739,iat_vr,5991865383707187,504.4427899993025,0
05949000,2,GUT,positiv,p,1,3,13,9,p,1,0.4377698530006455,002,2019_Jun_20_1739,iat_vr,5991865383707187,437.7698530006455,0
05949000,2,SCHÄDLICH,negativ,q,1,4,14,3,q,1,0.5547933979978552,002,2019_Jun_20_1739,iat_vr,5991865383707187,554.7933979978552,0
05949000,2,HERVORRAGEND,positiv,p,1,5,15,7,p,1,0.5835731329862028,002,2019_Jun_20_1739,iat_vr,5991865383707187,583.5731329862028,0
05949000,2,SCHWACH,negativ,q,1,6,16,4,q,1,0.7546106960071484,002,2019_Jun_20_1739,iat_vr,5991865383707187,754.6106960071484,0
05949000,2,SCHLECHT,negativ,q,1,7,17,1,q,1,0.705400278995512,002,2019_Jun_20_1739,iat_vr,5991865383707187,705.400278995512,0
05949000,2,POSITIV,positiv,p,1,8,18,8,p,1,0.4557439210038865,002,2019_Jun_20_1739,iat_vr,5991865383707187,455.7439210038865,0
05949000,2,EINWANDFREI,positiv,p,1,9,19,6,p,1,0.5208106479985872,002,2019_Jun_20_1739,iat_vr,5991865383707187,520.8106479985872,0
05949000,3,BAUM,Natur,q,0,0,0,10,q,1,1.1507605660008267,002,2019_Jun_20_1739,iat_vr,5991865383707187,1150.7605660008267,0
05949000,3,SCHWACH,negativ,q,0,1,1,4,q,1,1.0225315949937794,002,2019_Jun_20_1739,iat_vr,5991865383707187,1022.5315949937794,0
05949000,3,KLEIDER,Gemacht,p,0,2,2,17,p,1,0.6555583549925359,002,2019_Jun_20_1739,iat_vr,5991865383707187,655.5583549925359,0
05949000,3,NEGATIV,negativ,q,0,3,3,2,q,1,0.9891501070087543,002,2019_Jun_20_1739,iat_vr,5991865383707187,989.1501070087543,0
05949000,3,SCHÄDLICH,negativ,q,0,4,4,3,q,1,1.2886804820009274,002,2019_Jun_20_1739,iat_vr,5991865383707187,1288.6804820009274,0
05949000,3,GEBÄUDE,Gemacht,p,0,5,5,15,p,1,1.404719241996645,002,2019_Jun_20_1739,iat_vr,5991865383707187,1404.719241996645,0
05949000,3,COMPUTER,Gemacht,p,0,6,6,18,p,1,0.737847406999208,002,2019_Jun_20_1739,iat_vr,5991865383707187,737.847406999208,0
05949000,3,HERVORRAGEND,positiv,p,0,7,7,7,p,1,0.5713531710061943,002,2019_Jun_20_1739,iat_vr,5991865383707187,571.3531710061943,0
05949000,3,AUSGEZEICHNET,positiv,p,0,8,8,5,p,1,1.4547726709861308,002,2019_Jun_20_1739,iat_vr,5991865383707187,1454.7726709861308,0
05949000,3,BLUME,Natur,q,0,9,9,12,q,1,0.7894573899975512,002,2019_Jun_20_1739,iat_vr,5991865383707187,789.4573899975512,0
05949000,3,SCHLECHT,negativ,q,0,10,10,1,q,1,0.9720803020027233,002,2019_Jun_20_1739,iat_vr,5991865383707187,972.0803020027233,0
05949000,3,LAMPE,Gemacht,p,0,11,11,19,p,1,0.6888943500089226,002,2019_Jun_20_1739,iat_vr,5991865383707187,688.8943500089226,0
05949000,3,TIER,Natur,q,0,12,12,13,q,1,0.7197164259996498,002,2019_Jun_20_1739,iat_vr,5991865383707187,719.7164259996498,0
05949000,3,GUT,positiv,p,0,13,13,9,q,0,0.7553971090092091,002,2019_Jun_20_1739,iat_vr,5991865383707187,755.3971090092091,1
05949000,3,EINWANDFREI,positiv,p,0,14,14,6,p,1,1.2389625880023232,002,2019_Jun_20_1739,iat_vr,5991865383707187,1238.9625880023232,0
05949000,3,STEIN,Natur,q,0,15,15,14,p,0,0.7558253650058759,002,2019_Jun_20_1739,iat_vr,5991865383707187,755.8253650058759,1
05949000,3,SCHLIMM,negativ,q,0,16,16,0,q,1,0.8548537640017457,002,2019_Jun_20_1739,iat_vr,5991865383707187,854.8537640017457,0
05949000,3,POSITIV,positiv,p,0,17,17,8,p,1,0.9522191019932507,002,2019_Jun_20_1739,iat_vr,5991865383707187,952.2191019932507,0
05949000,3,WASSER,Natur,q,0,18,18,11,q,1,1.4894788780075032,002,2019_Jun_20_1739,iat_vr,5991865383707187,1489.4788780075032,0
05949000,3,STADT,Gemacht,p,0,19,19,16,p,1,1.3057010529882973,002,2019_Jun_20_1739,iat_vr,5991865383707187,1305.7010529882973,0
05949000,4,NEGATIV,negativ,q,0,0,0,2,q,1,0.6881145109946374,002,2019_Jun_20_1739,iat_vr,5991865383707187,688.1145109946374,0
05949000,4,LAMPE,Gemacht,p,0,1,1,19,p,1,0.8693159670074238,002,2019_Jun_20_1739,iat_vr,5991865383707187,869.3159670074238,0
05949000,4,TIER,Natur,q,0,2,2,13,q,1,1.3901292189984815,002,2019_Jun_20_1739,iat_vr,5991865383707187,1390.1292189984815,0
05949000,4,STEIN,Natur,q,0,3,3,14,q,1,0.6388506490038708,002,2019_Jun_20_1739,iat_vr,5991865383707187,638.8506490038708,0
05949000,4,EINWANDFREI,positiv,p,0,4,4,6,p,1,0.8547992959938711,002,2019_Jun_20_1739,iat_vr,5991865383707187,854.799295993871,0
05949000,4,POSITIV,positiv,p,0,5,5,8,p,1,0.7854526159935631,002,2019_Jun_20_1739,iat_vr,5991865383707187,785.4526159935631,0
05949000,4,SCHLIMM,negativ,q,0,6,6,0,q,1,0.8057566549978219,002,2019_Jun_20_1739,iat_vr,5991865383707187,805.7566549978219,0
05949000,4,BLUME,Natur,q,0,7,7,12,q,1,0.739418162003858,002,2019_Jun_20_1739,iat_vr,5991865383707187,739.418162003858,0
05949000,4,COMPUTER,Gemacht,p,0,8,8,18,p,1,0.6210948700027075,002,2019_Jun_20_1739,iat_vr,5991865383707187,621.0948700027075,0
05949000,4,GUT,positiv,p,0,9,9,9,p,1,0.9224852300103521,002,2019_Jun_20_1739,iat_vr,5991865383707187,922.4852300103521,0
05949000,4,AUSGEZEICHNET,positiv,p,0,10,10,5,p,1,0.9175346019910648,002,2019_Jun_20_1739,iat_vr,5991865383707187,917.5346019910648,0
05949000,4,SCHÄDLICH,negativ,q,0,11,11,3,q,1,0.7218052389944205,002,2019_Jun_20_1739,iat_vr,5991865383707187,721.8052389944205,0
05949000,4,GEBÄUDE,Gemacht,p,0,12,12,15,p,1,1.6514943939982913,002,2019_Jun_20_1739,iat_vr,5991865383707187,1651.4943939982913,0
05949000,4,SCHLECHT,negativ,q,0,13,13,1,q,1,0.7221146899973974,002,2019_Jun_20_1739,iat_vr,5991865383707187,722.1146899973974,0
05949000,4,SCHWACH,negativ,q,0,14,14,4,q,1,0.8723906719969818,002,2019_Jun_20_1739,iat_vr,5991865383707187,872.3906719969818,0
05949000,4,HERVORRAGEND,positiv,p,0,15,15,7,p,1,0.7367930189939216,002,2019_Jun_20_1739,iat_vr,5991865383707187,736.7930189939216,0
05949000,4,BAUM,Natur,q,0,16,16,10,q,1,0.8733161329873838,002,2019_Jun_20_1739,iat_vr,5991865383707187,873.3161329873838,0
05949000,4,WASSER,Natur,q,0,17,17,11,q,1,0.4882463550020475,002,2019_Jun_20_1739,iat_vr,5991865383707187,488.2463550020475,0
05949000,4,STADT,Gemacht,p,0,18,18,16,p,1,1.6232986679970054,002,2019_Jun_20_1739,iat_vr,5991865383707187,1623.2986679970054,0
05949000,4,KLEIDER,Gemacht,p,0,19,19,17,p,1,0.6356915689975722,002,2019_Jun_20_1739,iat_vr,5991865383707187,635.6915689975722,0
05949000,4,BLUME,Natur,q,1,0,20,12,q,1,0.8384160800051177,002,2019_Jun_20_1739,iat_vr,5991865383707187,838.4160800051177,0
05949000,4,COMPUTER,Gemacht,p,1,1,21,18,p,1,0.8381051989999833,002,2019_Jun_20_1739,iat_vr,5991865383707187,838.1051989999833,0
05949000,4,SCHWACH,negativ,q,1,2,22,4,q,1,0.9378579720068956,002,2019_Jun_20_1739,iat_vr,5991865383707187,937.8579720068956,0
05949000,4,HERVORRAGEND,positiv,p,1,3,23,7,p,1,0.6871051069902023,002,2019_Jun_20_1739,iat_vr,5991865383707187,687.1051069902023,0
05949000,4,STEIN,Natur,q,1,4,24,14,q,1,1.0058824830048252,002,2019_Jun_20_1739,iat_vr,5991865383707187,1005.8824830048252,0
05949000,4,SCHLECHT,negativ,q,1,5,25,1,q,1,0.6874370010045823,002,2019_Jun_20_1739,iat_vr,5991865383707187,687.4370010045823,0
05949000,4,NEGATIV,negativ,q,1,6,26,2,q,1,0.570483386007254,002,2019_Jun_20_1739,iat_vr,5991865383707187,570.483386007254,0
05949000,4,BAUM,Natur,q,1,7,27,10,q,1,0.6051489840028808,002,2019_Jun_20_1739,iat_vr,5991865383707187,605.1489840028808,0
05949000,4,WASSER,Natur,q,1,8,28,11,q,1,0.5554094090039143,002,2019_Jun_20_1739,iat_vr,5991865383707187,555.4094090039143,0
05949000,4,GUT,positiv,p,1,9,29,9,p,1,1.08928805400501,002,2019_Jun_20_1739,iat_vr,5991865383707187,1089.28805400501,0
05949000,4,GEBÄUDE,Gemacht,p,1,10,30,15,p,1,1.6059126180043677,002,2019_Jun_20_1739,iat_vr,5991865383707187,1605.9126180043677,0
05949000,4,AUSGEZEICHNET,positiv,p,1,11,31,5,p,1,0.8008733980095712,002,2019_Jun_20_1739,iat_vr,5991865383707187,800.8733980095712,0
05949000,4,KLEIDER,Gemacht,p,1,12,32,17,p,1,0.6058875529997749,002,2019_Jun_20_1739,iat_vr,5991865383707187,605.8875529997749,0
05949000,4,LAMPE,Gemacht,p,1,13,33,19,p,1,0.5222987759916577,002,2019_Jun_20_1739,iat_vr,5991865383707187,522.2987759916577,0
05949000,4,SCHLIMM,negativ,q,1,14,34,0,q,1,0.6871209180098958,002,2019_Jun_20_1739,iat_vr,5991865383707187,687.1209180098958,0
05949000,4,POSITIV,positiv,p,1,15,35,8,p,1,0.8552687819901621,002,2019_Jun_20_1739,iat_vr,5991865383707187,855.2687819901621,0
05949000,4,EINWANDFREI,positiv,p,1,16,36,6,q,0,0.7181973539991304,002,2019_Jun_20_1739,iat_vr,5991865383707187,718.1973539991304,1
05949000,4,SCHÄDLICH,negativ,q,1,17,37,3,q,1,1.839408543004538,002,2019_Jun_20_1739,iat_vr,5991865383707187,1839.408543004538,0
05949000,4,STADT,Gemacht,p,1,18,38,16,p,1,1.206385961995693,002,2019_Jun_20_1739,iat_vr,5991865383707187,1206.385961995693,0
05949000,4,TIER,Natur,q,1,19,39,13,q,1,0.7066409260005457,002,2019_Jun_20_1739,iat_vr,5991865383707187,706.6409260005457,0
05949000,5,BLUME,Natur,p,0,0,0,2,p,1,0.9380493549979292,002,2019_Jun_20_1739,iat_vr,5991865383707187,938.0493549979292,0
05949000,5,WASSER,Natur,p,0,1,1,1,p,1,0.5385409209993668,002,2019_Jun_20_1739,iat_vr,5991865383707187,538.5409209993668,0
05949000,5,STADT,Gemacht,q,0,2,2,6,q,1,0.8525146059982944,002,2019_Jun_20_1739,iat_vr,5991865383707187,852.5146059982944,0
05949000,5,TIER,Natur,p,0,3,3,3,p,1,0.6229774919920601,002,2019_Jun_20_1739,iat_vr,5991865383707187,622.9774919920601,0
05949000,5,COMPUTER,Gemacht,q,0,4,4,8,q,1,0.6396770749997813,002,2019_Jun_20_1739,iat_vr,5991865383707187,639.6770749997813,0
05949000,5,KLEIDER,Gemacht,q,0,5,5,7,q,1,0.9057398949953495,002,2019_Jun_20_1739,iat_vr,5991865383707187,905.7398949953495,0
05949000,5,LAMPE,Gemacht,q,0,6,6,9,q,1,0.6885907620016951,002,2019_Jun_20_1739,iat_vr,5991865383707187,688.5907620016951,0
05949000,5,STEIN,Natur,p,0,7,7,4,p,1,0.5049709390004864,002,2019_Jun_20_1739,iat_vr,5991865383707187,504.9709390004864,0
05949000,5,BAUM,Natur,p,0,8,8,0,p,1,0.47222227598831523,002,2019_Jun_20_1739,iat_vr,5991865383707187,472.22227598831523,0
05949000,5,GEBÄUDE,Gemacht,q,0,9,9,5,q,1,0.6718113779934356,002,2019_Jun_20_1739,iat_vr,5991865383707187,671.8113779934356,0
05949000,5,TIER,Natur,p,1,0,10,3,p,1,0.6044849659956526,002,2019_Jun_20_1739,iat_vr,5991865383707187,604.4849659956526,0
05949000,5,KLEIDER,Gemacht,q,1,1,11,7,q,1,0.6352384150086436,002,2019_Jun_20_1739,iat_vr,5991865383707187,635.2384150086436,0
05949000,5,GEBÄUDE,Gemacht,q,1,2,12,5,q,1,0.7855005929886829,002,2019_Jun_20_1739,iat_vr,5991865383707187,785.5005929886829,0
05949000,5,BAUM,Natur,p,1,3,13,0,p,1,0.5888092839886667,002,2019_Jun_20_1739,iat_vr,5991865383707187,588.8092839886667,0
05949000,5,STEIN,Natur,p,1,4,14,4,p,1,0.5390919530036626,002,2019_Jun_20_1739,iat_vr,5991865383707187,539.0919530036626,0
05949000,5,BLUME,Natur,p,1,5,15,2,p,1,0.4552264409867348,002,2019_Jun_20_1739,iat_vr,5991865383707187,455.2264409867348,0
05949000,5,WASSER,Natur,p,1,6,16,1,p,1,0.4892523290036479,002,2019_Jun_20_1739,iat_vr,5991865383707187,489.2523290036479,0
05949000,5,STADT,Gemacht,q,1,7,17,6,q,1,0.8522250649984926,002,2019_Jun_20_1739,iat_vr,5991865383707187,852.2250649984926,0
05949000,5,LAMPE,Gemacht,q,1,8,18,9,q,1,0.3725768690055702,002,2019_Jun_20_1739,iat_vr,5991865383707187,372.5768690055702,0
05949000,5,COMPUTER,Gemacht,q,1,9,19,8,q,1,1.055586806993233,002,2019_Jun_20_1739,iat_vr,5991865383707187,1055.586806993233,0
05949000,6,GEBÄUDE,Gemacht,q,0,0,0,5,q,1,1.4371600659942487,002,2019_Jun_20_1739,iat_vr,5991865383707187,1437.1600659942487,0
05949000,6,SCHWACH,negativ,q,0,1,1,14,q,1,0.6387065739982063,002,2019_Jun_20_1739,iat_vr,5991865383707187,638.7065739982063,0
05949000,6,STEIN,Natur,p,0,2,2,4,p,1,0.822943065999425,002,2019_Jun_20_1739,iat_vr,5991865383707187,822.943065999425,0
05949000,6,LAMPE,Gemacht,q,0,3,3,9,q,1,0.8228345209936379,002,2019_Jun_20_1739,iat_vr,5991865383707187,822.8345209936379,0
05949000,6,BAUM,Natur,p,0,4,4,0,p,1,0.8719816390075721,002,2019_Jun_20_1739,iat_vr,5991865383707187,871.9816390075721,0
05949000,6,SCHLIMM,negativ,q,0,5,5,10,q,1,0.6221494250057731,002,2019_Jun_20_1739,iat_vr,5991865383707187,622.1494250057731,0
05949000,6,AUSGEZEICHNET,positiv,p,0,6,6,15,p,1,0.9367673439992359,002,2019_Jun_20_1739,iat_vr,5991865383707187,936.7673439992359,0
05949000,6,NEGATIV,negativ,q,0,7,7,12,q,1,0.701916545003769,002,2019_Jun_20_1739,iat_vr,5991865383707187,701.916545003769,0
05949000,6,BLUME,Natur,p,0,8,8,2,p,1,0.6726787119987421,002,2019_Jun_20_1739,iat_vr,5991865383707187,672.6787119987421,0
05949000,6,HERVORRAGEND,positiv,p,0,9,9,17,p,1,1.1705486229911912,002,2019_Jun_20_1739,iat_vr,5991865383707187,1170.5486229911912,0
05949000,6,COMPUTER,Gemacht,q,0,10,10,8,q,1,0.7889533220004523,002,2019_Jun_20_1739,iat_vr,5991865383707187,788.9533220004523,0
05949000,6,TIER,Natur,p,0,11,11,3,p,1,0.8877126310107997,002,2019_Jun_20_1739,iat_vr,5991865383707187,887.7126310107997,0
05949000,6,KLEIDER,Gemacht,q,0,12,12,7,q,1,0.8688056559913093,002,2019_Jun_20_1739,iat_vr,5991865383707187,868.8056559913093,0
05949000,6,SCHÄDLICH,negativ,q,0,13,13,13,q,1,0.5716500419948716,002,2019_Jun_20_1739,iat_vr,5991865383707187,571.6500419948716,0
05949000,6,GUT,positiv,p,0,14,14,19,p,1,0.633919394997065,002,2019_Jun_20_1739,iat_vr,5991865383707187,633.919394997065,0
05949000,6,SCHLECHT,negativ,q,0,15,15,11,q,1,0.5214650309935678,002,2019_Jun_20_1739,iat_vr,5991865383707187,521.4650309935678,0
05949000,6,STADT,Gemacht,q,0,16,16,6,q,1,0.8891555550071644,002,2019_Jun_20_1739,iat_vr,5991865383707187,889.1555550071644,0
05949000,6,EINWANDFREI,positiv,p,0,17,17,16,p,1,1.97215028500068,002,2019_Jun_20_1739,iat_vr,5991865383707187,1972.15028500068,0
05949000,6,WASSER,Natur,p,0,18,18,1,p,1,1.0884995050000725,002,2019_Jun_20_1739,iat_vr,5991865383707187,1088.4995050000725,0
05949000,6,POSITIV,positiv,p,0,19,19,18,p,1,0.7879538609995507,002,2019_Jun_20_1739,iat_vr,5991865383707187,787.9538609995507,0
05949000,7,TIER,Natur,p,0,0,0,3,p,1,0.7881584269925952,002,2019_Jun_20_1739,iat_vr,5991865383707187,788.1584269925952,0
05949000,7,BLUME,Natur,p,0,1,1,2,p,1,0.7216262110014213,002,2019_Jun_20_1739,iat_vr,5991865383707187,721.6262110014213,0
05949000,7,HERVORRAGEND,positiv,p,0,2,2,17,p,1,0.8379232419974869,002,2019_Jun_20_1739,iat_vr,5991865383707187,837.9232419974869,0
05949000,7,GEBÄUDE,Gemacht,q,0,3,3,5,q,1,0.8385381529951701,002,2019_Jun_20_1739,iat_vr,5991865383707187,838.5381529951701,0
05949000,7,STADT,Gemacht,q,0,4,4,6,q,1,0.7891051910119131,002,2019_Jun_20_1739,iat_vr,5991865383707187,789.1051910119131,0
05949000,7,NEGATIV,negativ,q,0,5,5,12,q,1,0.438616365994676,002,2019_Jun_20_1739,iat_vr,5991865383707187,438.616365994676,0
05949000,7,LAMPE,Gemacht,q,0,6,6,9,q,1,0.6050943099980941,002,2019_Jun_20_1739,iat_vr,5991865383707187,605.0943099980941,0
05949000,7,SCHLIMM,negativ,q,0,7,7,10,q,1,0.404733261995716,002,2019_Jun_20_1739,iat_vr,5991865383707187,404.733261995716,0
05949000,7,GUT,positiv,p,0,8,8,19,p,1,0.6539072299929103,002,2019_Jun_20_1739,iat_vr,5991865383707187,653.9072299929103,0
05949000,7,POSITIV,positiv,p,0,9,9,18,p,1,0.7220898669911548,002,2019_Jun_20_1739,iat_vr,5991865383707187,722.0898669911548,0
05949000,7,WASSER,Natur,p,0,10,10,1,p,1,0.4221832390030613,002,2019_Jun_20_1739,iat_vr,5991865383707187,422.1832390030613,0
05949000,7,COMPUTER,Gemacht,q,0,11,11,8,q,1,0.604925790001289,002,2019_Jun_20_1739,iat_vr,5991865383707187,604.925790001289,0
05949000,7,SCHWACH,negativ,q,0,12,12,14,q,1,0.6039534930023365,002,2019_Jun_20_1739,iat_vr,5991865383707187,603.9534930023365,0
05949000,7,SCHLECHT,negativ,q,0,13,13,11,q,1,0.5038095539930509,002,2019_Jun_20_1739,iat_vr,5991865383707187,503.80955399305094,0
05949000,7,AUSGEZEICHNET,positiv,p,0,14,14,15,p,1,0.8540858779888367,002,2019_Jun_20_1739,iat_vr,5991865383707187,854.0858779888367,0
05949000,7,STEIN,Natur,p,0,15,15,4,p,1,0.2890584970009513,002,2019_Jun_20_1739,iat_vr,5991865383707187,289.0584970009513,0
05949000,7,SCHÄDLICH,negativ,q,0,16,16,13,q,1,0.6168481450004037,002,2019_Jun_20_1739,iat_vr,5991865383707187,616.8481450004037,0
05949000,7,BAUM,Natur,p,0,17,17,0,p,1,0.9209233120054705,002,2019_Jun_20_1739,iat_vr,5991865383707187,920.9233120054705,0
05949000,7,KLEIDER,Gemacht,q,0,18,18,7,q,1,0.7223171469959198,002,2019_Jun_20_1739,iat_vr,5991865383707187,722.3171469959198,0
05949000,7,EINWANDFREI,positiv,p,0,19,19,16,p,1,1.0049614129966358,002,2019_Jun_20_1739,iat_vr,5991865383707187,1004.9614129966358,0
05949000,7,LAMPE,Gemacht,q,1,0,20,9,q,1,0.8893663070048206,002,2019_Jun_20_1739,iat_vr,5991865383707187,889.3663070048206,0
05949000,7,EINWANDFREI,positiv,p,1,1,21,16,p,1,0.7872628870100016,002,2019_Jun_20_1739,iat_vr,5991865383707187,787.2628870100016,0
05949000,7,WASSER,Natur,p,1,2,22,1,p,1,1.072858900995925,002,2019_Jun_20_1739,iat_vr,5991865383707187,1072.858900995925,0
05949000,7,SCHÄDLICH,negativ,q,1,3,23,13,q,1,0.7713639419962419,002,2019_Jun_20_1739,iat_vr,5991865383707187,771.3639419962419,0
05949000,7,SCHLECHT,negativ,q,1,4,24,11,q,1,0.5387828920065658,002,2019_Jun_20_1739,iat_vr,5991865383707187,538.7828920065658,0
05949000,7,POSITIV,positiv,p,1,5,25,18,q,0,0.48910508799599484,002,2019_Jun_20_1739,iat_vr,5991865383707187,489.10508799599484,1
05949000,7,GEBÄUDE,Gemacht,q,1,6,26,5,p,0,0.9890667930012569,002,2019_Jun_20_1739,iat_vr,5991865383707187,989.0667930012569,1
05949000,7,BAUM,Natur,p,1,7,27,0,p,1,1.5726082299952395,002,2019_Jun_20_1739,iat_vr,5991865383707187,1572.6082299952395,0
05949000,7,SCHLIMM,negativ,q,1,8,28,10,q,1,0.8010087979928358,002,2019_Jun_20_1739,iat_vr,5991865383707187,801.0087979928358,0
05949000,7,STADT,Gemacht,q,1,9,29,6,q,1,0.6051426299964078,002,2019_Jun_20_1739,iat_vr,5991865383707187,605.1426299964078,0
05949000,7,TIER,Natur,p,1,10,30,3,p,1,1.100933288995293,002,2019_Jun_20_1739,iat_vr,5991865383707187,1100.933288995293,0
05949000,7,SCHWACH,negativ,q,1,11,31,14,q,1,0.6722185750113567,002,2019_Jun_20_1739,iat_vr,5991865383707187,672.2185750113567,0
05949000,7,BLUME,Natur,p,1,12,32,2,p,1,0.48881408300076146,002,2019_Jun_20_1739,iat_vr,5991865383707187,488.81408300076146,0
05949000,7,COMPUTER,Gemacht,q,1,13,33,8,q,1,0.6209709740069229,002,2019_Jun_20_1739,iat_vr,5991865383707187,620.9709740069229,0
05949000,7,KLEIDER,Gemacht,q,1,14,34,7,p,0,0.6217065039963927,002,2019_Jun_20_1739,iat_vr,5991865383707187,621.7065039963927,1
05949000,7,NEGATIV,negativ,q,1,15,35,12,q,1,1.1893030740029644,002,2019_Jun_20_1739,iat_vr,5991865383707187,1189.3030740029644,0
05949000,7,STEIN,Natur,p,1,16,36,4,p,1,0.7886470100056613,002,2019_Jun_20_1739,iat_vr,5991865383707187,788.6470100056613,0
05949000,7,HERVORRAGEND,positiv,p,1,17,37,17,p,1,0.6710661119868746,002,2019_Jun_20_1739,iat_vr,5991865383707187,671.0661119868746,0
05949000,7,GUT,positiv,p,1,18,38,19,p,1,0.48957440099911764,002,2019_Jun_20_1739,iat_vr,5991865383707187,489.57440099911764,0
05949000,7,AUSGEZEICHNET,positiv,p,1,19,39,15,p,1,0.9532974600006128,002,2019_Jun_20_1739,iat_vr,5991865383707187,953.2974600006128,0
06218481,1,COMPUTER,Gemacht,p,0,0,0,8,q,0,10.138283526990563,001,2019_Jun_19_0927,iat_vr,59619854267226216,10138.283526990563,1
06218481,1,KLEIDER,Gemacht,p,0,1,1,7,p,1,1.1343133610062068,001,2019_Jun_19_0927,iat_vr,59619854267226216,1134.3133610062068,0
06218481,1,BLUME,Natur,q,0,2,2,2,q,1,0.9039437980100047,001,2019_Jun_19_0927,iat_vr,59619854267226216,903.9437980100047,0
06218481,1,BAUM,Natur,q,0,3,3,0,q,1,0.6542309209908126,001,2019_Jun_19_0927,iat_vr,59619854267226216,654.2309209908126,0
06218481,1,LAMPE,Gemacht,p,0,4,4,9,p,1,1.0559486299898708,001,2019_Jun_19_0927,iat_vr,59619854267226216,1055.9486299898708,0
06218481,1,GEBÄUDE,Gemacht,p,0,5,5,5,p,1,0.687055917995167,001,2019_Jun_19_0927,iat_vr,59619854267226216,687.055917995167,0
06218481,1,TIER,Natur,q,0,6,6,3,q,1,0.6560738000116544,001,2019_Jun_19_0927,iat_vr,59619854267226216,656.0738000116544,0
06218481,1,STADT,Gemacht,p,0,7,7,6,p,1,0.5560103019961389,001,2019_Jun_19_0927,iat_vr,59619854267226216,556.0103019961389,0
06218481,1,WASSER,Natur,q,0,8,8,1,q,1,0.7006956389959669,001,2019_Jun_19_0927,iat_vr,59619854267226216,700.6956389959669,0
06218481,1,STEIN,Natur,q,0,9,9,4,q,1,0.6211769710062072,001,2019_Jun_19_0927,iat_vr,59619854267226216,621.1769710062072,0
06218481,1,STADT,Gemacht,p,1,0,10,6,p,1,0.9064119949907763,001,2019_Jun_19_0927,iat_vr,59619854267226216,906.4119949907763,0
06218481,1,BLUME,Natur,q,1,1,11,2,q,1,0.6564645340113202,001,2019_Jun_19_0927,iat_vr,59619854267226216,656.4645340113202,0
06218481,1,COMPUTER,Gemacht,p,1,2,12,8,p,1,0.8375482840056065,001,2019_Jun_19_0927,iat_vr,59619854267226216,837.5482840056065,0
06218481,1,LAMPE,Gemacht,p,1,3,13,9,p,1,0.7524339329975192,001,2019_Jun_19_0927,iat_vr,59619854267226216,752.4339329975192,0
06218481,1,KLEIDER,Gemacht,p,1,4,14,7,p,1,1.0050917430053232,001,2019_Jun_19_0927,iat_vr,59619854267226216,1005.0917430053232,0
06218481,1,GEBÄUDE,Gemacht,p,1,5,15,5,p,1,0.8393385020026471,001,2019_Jun_19_0927,iat_vr,59619854267226216,839.3385020026471,0
06218481,1,BAUM,Natur,q,1,6,16,0,q,1,0.6222096630081069,001,2019_Jun_19_0927,iat_vr,59619854267226216,622.2096630081069,0
06218481,1,STEIN,Natur,q,1,7,17,4,q,1,0.6399449409946101,001,2019_Jun_19_0927,iat_vr,59619854267226216,639.9449409946101,0
06218481,1,WASSER,Natur,q,1,8,18,1,q,1,0.6888550570001826,001,2019_Jun_19_0927,iat_vr,59619854267226216,688.8550570001826,0
06218481,1,TIER,Natur,q,1,9,19,3,q,1,0.7558023689925903,001,2019_Jun_19_0927,iat_vr,59619854267226216,755.8023689925903,0
06218481,2,SCHLIMM,negativ,q,0,0,0,0,q,1,1.088805142993806,001,2019_Jun_19_0927,iat_vr,59619854267226216,1088.805142993806,0
06218481,2,AUSGEZEICHNET,positiv,p,0,1,1,5,p,1,0.6034193210070953,001,2019_Jun_19_0927,iat_vr,59619854267226216,603.4193210070953,0
06218481,2,NEGATIV,negativ,q,0,2,2,2,q,1,0.6383688700007042,001,2019_Jun_19_0927,iat_vr,59619854267226216,638.3688700007042,0
06218481,2,SCHÄDLICH,negativ,q,0,3,3,3,q,1,0.6378099630092038,001,2019_Jun_19_0927,iat_vr,59619854267226216,637.8099630092038,0
06218481,2,SCHWACH,negativ,q,0,4,4,4,q,1,0.6547221040091245,001,2019_Jun_19_0927,iat_vr,59619854267226216,654.7221040091245,0
06218481,2,HERVORRAGEND,positiv,p,0,5,5,7,p,1,0.5716558040003292,001,2019_Jun_19_0927,iat_vr,59619854267226216,571.6558040003292,0
06218481,2,EINWANDFREI,positiv,p,0,6,6,6,p,1,0.7701305230002617,001,2019_Jun_19_0927,iat_vr,59619854267226216,770.1305230002617,0
06218481,2,POSITIV,positiv,p,0,7,7,8,p,1,0.5348296629963443,001,2019_Jun_19_0927,iat_vr,59619854267226216,534.8296629963443,0
06218481,2,GUT,positiv,p,0,8,8,9,p,1,0.5536174800072331,001,2019_Jun_19_0927,iat_vr,59619854267226216,553.6174800072331,0
06218481,2,SCHLECHT,negativ,q,0,9,9,1,q,1,0.6383461210061796,001,2019_Jun_19_0927,iat_vr,59619854267226216,638.3461210061796,0
06218481,2,SCHÄDLICH,negativ,q,1,0,10,3,p,0,0.6170853520015953,001,2019_Jun_19_0927,iat_vr,59619854267226216,617.0853520015953,1
06218481,2,NEGATIV,negativ,q,1,1,11,2,q,1,1.0058318410010543,001,2019_Jun_19_0927,iat_vr,59619854267226216,1005.8318410010543,0
06218481,2,HERVORRAGEND,positiv,p,1,2,12,7,p,1,0.687904920996516,001,2019_Jun_19_0927,iat_vr,59619854267226216,687.904920996516,0
06218481,2,SCHLIMM,negativ,q,1,3,13,0,q,1,0.7564846850000322,001,2019_Jun_19_0927,iat_vr,59619854267226216,756.4846850000322,0
06218481,2,EINWANDFREI,positiv,p,1,4,14,6,p,1,0.6046118179947371,001,2019_Jun_19_0927,iat_vr,59619854267226216,604.6118179947371,0
06218481,2,AUSGEZEICHNET,positiv,p,1,5,15,5,p,1,0.7378620740055339,001,2019_Jun_19_0927,iat_vr,59619854267226216,737.8620740055339,0
06218481,2,POSITIV,positiv,p,1,6,16,8,p,1,0.4891699720028555,001,2019_Jun_19_0927,iat_vr,59619854267226216,489.1699720028555,0
06218481,2,GUT,positiv,p,1,7,17,9,p,1,0.5879442299919901,001,2019_Jun_19_0927,iat_vr,59619854267226216,587.9442299919901,0
06218481,2,SCHLECHT,negativ,q,1,8,18,1,q,1,0.6047741109941853,001,2019_Jun_19_0927,iat_vr,59619854267226216,604.7741109941853,0
06218481,2,SCHWACH,negativ,q,1,9,19,4,p,0,0.5882566840009531,001,2019_Jun_19_0927,iat_vr,59619854267226216,588.2566840009531,1
06218481,3,GEBÄUDE,Gemacht,p,0,0,0,15,p,1,1.9041521760082105,001,2019_Jun_19_0927,iat_vr,59619854267226216,1904.1521760082105,0
06218481,3,SCHÄDLICH,negativ,q,0,1,1,3,q,1,1.069709307004814,001,2019_Jun_19_0927,iat_vr,59619854267226216,1069.709307004814,0
06218481,3,AUSGEZEICHNET,positiv,p,0,2,2,5,p,1,2.0537095610052347,001,2019_Jun_19_0927,iat_vr,59619854267226216,2053.7095610052347,0
06218481,3,STEIN,Natur,q,0,3,3,14,q,1,1.5866747660038527,001,2019_Jun_19_0927,iat_vr,59619854267226216,1586.6747660038527,0
06218481,3,HERVORRAGEND,positiv,p,0,4,4,7,p,1,0.7527969540096819,001,2019_Jun_19_0927,iat_vr,59619854267226216,752.7969540096819,0
06218481,3,BLUME,Natur,q,0,5,5,12,q,1,1.0363966299919412,001,2019_Jun_19_0927,iat_vr,59619854267226216,1036.3966299919412,0
06218481,3,COMPUTER,Gemacht,p,0,6,6,18,q,0,1.7367243819899159,001,2019_Jun_19_0927,iat_vr,59619854267226216,1736.7243819899159,1
06218481,3,KLEIDER,Gemacht,p,0,7,7,17,p,1,0.9531739929952892,001,2019_Jun_19_0927,iat_vr,59619854267226216,953.1739929952892,0
06218481,3,BAUM,Natur,q,0,8,8,10,q,1,0.7009340939985123,001,2019_Jun_19_0927,iat_vr,59619854267226216,700.9340939985123,0
06218481,3,SCHLECHT,negativ,q,0,9,9,1,q,1,1.0032866270048544,001,2019_Jun_19_0927,iat_vr,59619854267226216,1003.2866270048544,0
06218481,3,SCHWACH,negativ,q,0,10,10,4,q,1,0.8695120280026458,001,2019_Jun_19_0927,iat_vr,59619854267226216,869.5120280026458,0
06218481,3,WASSER,Natur,q,0,11,11,11,q,1,1.2531713860080345,001,2019_Jun_19_0927,iat_vr,59619854267226216,1253.1713860080345,0
06218481,3,EINWANDFREI,positiv,p,0,12,12,6,p,1,0.7695838009967702,001,2019_Jun_19_0927,iat_vr,59619854267226216,769.5838009967702,0
06218481,3,SCHLIMM,negativ,q,0,13,13,0,q,1,1.2678578899940476,001,2019_Jun_19_0927,iat_vr,59619854267226216,1267.8578899940476,0
06218481,3,POSITIV,positiv,p,0,14,14,8,p,1,0.9197200810012873,001,2019_Jun_19_0927,iat_vr,59619854267226216,919.7200810012873,0
06218481,3,LAMPE,Gemacht,p,0,15,15,19,p,1,0.8863553319970379,001,2019_Jun_19_0927,iat_vr,59619854267226216,886.3553319970379,0
06218481,3,TIER,Natur,q,0,16,16,13,q,1,0.7509050000080606,001,2019_Jun_19_0927,iat_vr,59619854267226216,750.9050000080606,0
06218481,3,NEGATIV,negativ,q,0,17,17,2,q,1,1.3865957769885426,001,2019_Jun_19_0927,iat_vr,59619854267226216,1386.5957769885426,0
06218481,3,GUT,positiv,p,0,18,18,9,p,1,1.1031786690000445,001,2019_Jun_19_0927,iat_vr,59619854267226216,1103.1786690000445,0
06218481,3,STADT,Gemacht,p,0,19,19,16,p,1,0.8861875799921108,001,2019_Jun_19_0927,iat_vr,59619854267226216,886.1875799921108,0
06218481,4,SCHLIMM,negativ,q,0,0,0,0,q,1,0.7372857390000718,001,2019_Jun_19_0927,iat_vr,59619854267226216,737.2857390000718,0
06218481,4,SCHLECHT,negativ,q,0,1,1,1,q,1,0.5360712069959845,001,2019_Jun_19_0927,iat_vr,59619854267226216,536.0712069959845,0
06218481,4,HERVORRAGEND,positiv,p,0,2,2,7,p,1,0.6197548310010461,001,2019_Jun_19_0927,iat_vr,59619854267226216,619.7548310010461,0
06218481,4,TIER,Natur,q,0,3,3,13,q,1,0.7034062439925037,001,2019_Jun_19_0927,iat_vr,59619854267226216,703.4062439925037,0
06218481,4,EINWANDFREI,positiv,p,0,4,4,6,p,1,0.9366161759971874,001,2019_Jun_19_0927,iat_vr,59619854267226216,936.6161759971874,0
06218481,4,WASSER,Natur,q,0,5,5,11,q,1,1.1869406920013716,001,2019_Jun_19_0927,iat_vr,59619854267226216,1186.9406920013716,0
06218481,4,LAMPE,Gemacht,p,0,6,6,19,p,1,0.6858565029979218,001,2019_Jun_19_0927,iat_vr,59619854267226216,685.8565029979218,0
06218481,4,POSITIV,positiv,p,0,7,7,8,p,1,1.086801290002768,001,2019_Jun_19_0927,iat_vr,59619854267226216,1086.801290002768,0
06218481,4,GEBÄUDE,Gemacht,p,0,8,8,15,p,1,1.2537429699877976,001,2019_Jun_19_0927,iat_vr,59619854267226216,1253.7429699877976,0
06218481,4,COMPUTER,Gemacht,p,0,9,9,18,p,1,0.5526451000041561,001,2019_Jun_19_0927,iat_vr,59619854267226216,552.6451000041561,0
06218481,4,BLUME,Natur,q,0,10,10,12,q,1,0.6861896319896914,001,2019_Jun_19_0927,iat_vr,59619854267226216,686.1896319896914,0
06218481,4,BAUM,Natur,q,0,11,11,10,q,1,0.5688539520051563,001,2019_Jun_19_0927,iat_vr,59619854267226216,568.8539520051563,0
06218481,4,NEGATIV,negativ,q,0,12,12,2,q,1,0.902779288997408,001,2019_Jun_19_0927,iat_vr,59619854267226216,902.779288997408,0
06218481,4,KLEIDER,Gemacht,p,0,13,13,17,p,1,1.4199585059977835,001,2019_Jun_19_0927,iat_vr,59619854267226216,1419.9585059977835,0
