Block;Word;Category;CorrResp;trials.thisRepN;trials.thisTrialN;trials.thisN;trials.thisIndex;key_resp_2.keys;key_resp_2.corr;key_resp_2.rt;session;participant;date;expName;frameRate;
1;LAMPE;Gemacht;p;0;0;0;9;p;1;0.8668708000000152;001;ARAR98;2019_Nov_26_0926;iat_vr;60.05562351849484;
1;BAUM;Natur;q;0;1;1;0;q;1;0.7338424000000714;001;ARAR98;2019_Nov_26_0926;iat_vr;60.05562351849484;
1;KLEIDER;Gemacht;p;0;2;2;7;p;1;0.6169912999999951;001;ARAR98;2019_Nov_26_0926;iat_vr;60.05562351849484;
1;TIER;Natur;q;0;3;3;3;q;1;0.6837351000000353;001;ARAR98;2019_Nov_26_0926;iat_vr;60.05562351849484;
1;WASSER;Natur;q;0;4;4;1;q;1;0.7003442000000177;001;ARAR98;2019_Nov_26_0926;iat_vr;60.05562351849484;
1;BLUME;Natur;q;0;5;5;2;q;1;0.5837360999998964;001;ARAR98;2019_Nov_26_0926;iat_vr;60.05562351849484;
1;COMPUTER;Gemacht;p;0;6;6;8;p;1;0.6004586999999901;001;ARAR98;2019_Nov_26_0926;iat_vr;60.05562351849484;
1;STADT;Gemacht;p;0;7;7;6;p;1;0.6837205000000495;001;ARAR98;2019_Nov_26_0926;iat_vr;60.05562351849484;
1;GEBÄUDE;Gemacht;p;0;8;8;5;p;1;0.6002856000000065;001;ARAR98;2019_Nov_26_0926;iat_vr;60.05562351849484;
1;STEIN;Natur;q;0;9;9;4;p;0;0.5169187000000193;001;ARAR98;2019_Nov_26_0926;iat_vr;60.05562351849484;
1;KLEIDER;Gemacht;p;1;0;10;7;p;1;1.5501114999999572;001;ARAR98;2019_Nov_26_0926;iat_vr;60.05562351849484;
1;STEIN;Natur;q;1;1;11;4;q;1;0.7670699999999897;001;ARAR98;2019_Nov_26_0926;iat_vr;60.05562351849484;
1;STADT;Gemacht;p;1;2;12;6;p;1;0.5503638999999794;001;ARAR98;2019_Nov_26_0926;iat_vr;60.05562351849484;
1;COMPUTER;Gemacht;p;1;3;13;8;p;1;0.5835937000000513;001;ARAR98;2019_Nov_26_0926;iat_vr;60.05562351849484;
1;WASSER;Natur;q;1;4;14;1;q;1;0.6502474999999777;001;ARAR98;2019_Nov_26_0926;iat_vr;60.05562351849484;
1;LAMPE;Gemacht;p;1;5;15;9;p;1;0.5860592000000224;001;ARAR98;2019_Nov_26_0926;iat_vr;60.05562351849484;
1;GEBÄUDE;Gemacht;p;1;6;16;5;p;1;1.0629953000000114;001;ARAR98;2019_Nov_26_0926;iat_vr;60.05562351849484;
1;TIER;Natur;q;1;7;17;3;q;1;0.5495335000000523;001;ARAR98;2019_Nov_26_0926;iat_vr;60.05562351849484;
1;BLUME;Natur;q;1;8;18;2;q;1;0.552642100000071;001;ARAR98;2019_Nov_26_0926;iat_vr;60.05562351849484;
1;BAUM;Natur;q;1;9;19;0;q;1;0.6187499999999773;001;ARAR98;2019_Nov_26_0926;iat_vr;60.05562351849484;
;;;;;;;;;;;001;ARAR98;2019_Nov_26_0926;iat_vr;60.05562351849484;
2;POSITIV;positiv;p;0;0;0;8;p;1;0.7456761999999344;001;ARAR98;2019_Nov_26_0926;iat_vr;60.05562351849484;
2;EINWANDFREI;positiv;p;0;1;1;6;p;1;1.0322948000000451;001;ARAR98;2019_Nov_26_0926;iat_vr;60.05562351849484;
2;AUSGEZEICHNET;positiv;p;0;2;2;5;p;1;0.5202843000000712;001;ARAR98;2019_Nov_26_0926;iat_vr;60.05562351849484;
2;SCHLECHT;negativ;q;0;3;3;1;q;1;0.6006193999999141;001;ARAR98;2019_Nov_26_0926;iat_vr;60.05562351849484;
2;SCHÄDLICH;negativ;q;0;4;4;3;q;1;0.6504075999999941;001;ARAR98;2019_Nov_26_0926;iat_vr;60.05562351849484;
2;NEGATIV;negativ;q;0;5;5;2;q;1;0.6163597000000891;001;ARAR98;2019_Nov_26_0926;iat_vr;60.05562351849484;
2;GUT;positiv;p;0;6;6;9;p;1;0.6130805000000237;001;ARAR98;2019_Nov_26_0926;iat_vr;60.05562351849484;
2;SCHLIMM;negativ;q;0;7;7;0;q;1;0.618301200000019;001;ARAR98;2019_Nov_26_0926;iat_vr;60.05562351849484;
2;SCHWACH;negativ;q;0;8;8;4;q;1;0.6816131000000496;001;ARAR98;2019_Nov_26_0926;iat_vr;60.05562351849484;
2;HERVORRAGEND;positiv;p;0;9;9;7;p;1;0.593420300000048;001;ARAR98;2019_Nov_26_0926;iat_vr;60.05562351849484;
2;HERVORRAGEND;positiv;p;1;0;10;7;p;1;0.7166965999999775;001;ARAR98;2019_Nov_26_0926;iat_vr;60.05562351849484;
2;NEGATIV;negativ;q;1;1;11;2;q;1;0.5689148999999816;001;ARAR98;2019_Nov_26_0926;iat_vr;60.05562351849484;
2;AUSGEZEICHNET;positiv;p;1;2;12;5;p;1;0.5927474000000075;001;ARAR98;2019_Nov_26_0926;iat_vr;60.05562351849484;
2;GUT;positiv;p;1;3;13;9;p;1;0.8997841000000335;001;ARAR98;2019_Nov_26_0926;iat_vr;60.05562351849484;
2;EINWANDFREI;positiv;p;1;4;14;6;p;1;0.5670759999999291;001;ARAR98;2019_Nov_26_0926;iat_vr;60.05562351849484;
2;SCHLECHT;negativ;q;1;5;15;1;q;1;0.5673559000000523;001;ARAR98;2019_Nov_26_0926;iat_vr;60.05562351849484;
2;SCHÄDLICH;negativ;q;1;6;16;3;q;1;0.7666148999999223;001;ARAR98;2019_Nov_26_0926;iat_vr;60.05562351849484;
2;SCHLIMM;negativ;q;1;7;17;0;q;1;0.5186923999999635;001;ARAR98;2019_Nov_26_0926;iat_vr;60.05562351849484;
2;POSITIV;positiv;p;1;8;18;8;p;1;0.5306580999999824;001;ARAR98;2019_Nov_26_0926;iat_vr;60.05562351849484;
2;SCHWACH;negativ;q;1;9;19;4;q;1;0.499717099999998;001;ARAR98;2019_Nov_26_0926;iat_vr;60.05562351849484;
;;;;;;;;;;;001;ARAR98;2019_Nov_26_0926;iat_vr;60.05562351849484;
3;SCHÄDLICH;negativ;q;0;0;0;3;q;1;0.7066248999999516;001;ARAR98;2019_Nov_26_0926;iat_vr;60.05562351849484;
3;STEIN;Natur;q;0;1;1;14;q;1;0.6671055000000479;001;ARAR98;2019_Nov_26_0926;iat_vr;60.05562351849484;
3;COMPUTER;Gemacht;p;0;2;2;18;p;1;0.8338205999999673;001;ARAR98;2019_Nov_26_0926;iat_vr;60.05562351849484;
3;HERVORRAGEND;positiv;p;0;3;3;7;p;1;0.8669403000000102;001;ARAR98;2019_Nov_26_0926;iat_vr;60.05562351849484;
3;SCHWACH;negativ;q;0;4;4;4;q;1;0.7005050999999867;001;ARAR98;2019_Nov_26_0926;iat_vr;60.05562351849484;
3;BAUM;Natur;q;0;5;5;10;q;1;0.5673214000000826;001;ARAR98;2019_Nov_26_0926;iat_vr;60.05562351849484;
3;STADT;Gemacht;p;0;6;6;16;q;0;0.46738010000001395;001;ARAR98;2019_Nov_26_0926;iat_vr;60.05562351849484;
3;GUT;positiv;p;0;7;7;9;p;1;0.8499669000000267;001;ARAR98;2019_Nov_26_0926;iat_vr;60.05562351849484;
3;SCHLECHT;negativ;q;0;8;8;1;q;1;0.9336984000000257;001;ARAR98;2019_Nov_26_0926;iat_vr;60.05562351849484;
3;POSITIV;positiv;p;0;9;9;8;p;1;0.6334448000000066;001;ARAR98;2019_Nov_26_0926;iat_vr;60.05562351849484;
3;LAMPE;Gemacht;p;0;10;10;19;p;1;0.5669705000000249;001;ARAR98;2019_Nov_26_0926;iat_vr;60.05562351849484;
3;SCHLIMM;negativ;q;0;11;11;0;q;1;0.617300699999987;001;ARAR98;2019_Nov_26_0926;iat_vr;60.05562351849484;
3;AUSGEZEICHNET;positiv;p;0;12;12;5;p;1;0.7671364999999923;001;ARAR98;2019_Nov_26_0926;iat_vr;60.05562351849484;
3;KLEIDER;Gemacht;p;0;13;13;17;p;1;0.7173799999999346;001;ARAR98;2019_Nov_26_0926;iat_vr;60.05562351849484;
3;TIER;Natur;q;0;14;14;13;q;1;0.6837970000000269;001;ARAR98;2019_Nov_26_0926;iat_vr;60.05562351849484;
3;EINWANDFREI;positiv;p;0;15;15;6;p;1;0.9337563999999929;001;ARAR98;2019_Nov_26_0926;iat_vr;60.05562351849484;
3;NEGATIV;negativ;q;0;16;16;2;q;1;0.8170339999999214;001;ARAR98;2019_Nov_26_0926;iat_vr;60.05562351849484;
3;BLUME;Natur;q;0;17;17;12;q;1;0.6005926999999929;001;ARAR98;2019_Nov_26_0926;iat_vr;60.05562351849484;
3;WASSER;Natur;q;0;18;18;11;q;1;0.600646299999994;001;ARAR98;2019_Nov_26_0926;iat_vr;60.05562351849484;
3;GEBÄUDE;Gemacht;p;0;19;19;15;p;1;0.8335852000000159;001;ARAR98;2019_Nov_26_0926;iat_vr;60.05562351849484;
;;;;;;;;;;;001;ARAR98;2019_Nov_26_0926;iat_vr;60.05562351849484;
4;STEIN;Natur;q;0;0;0;14;q;1;1.2233535999999958;001;ARAR98;2019_Nov_26_0926;iat_vr;60.05562351849484;
4;GEBÄUDE;Gemacht;p;0;1;1;15;p;1;0.6003398000000288;001;ARAR98;2019_Nov_26_0926;iat_vr;60.05562351849484;
4;KLEIDER;Gemacht;p;0;2;2;17;p;1;0.6007329999999911;001;ARAR98;2019_Nov_26_0926;iat_vr;60.05562351849484;
4;SCHLECHT;negativ;q;0;3;3;1;q;1;0.5504313000000138;001;ARAR98;2019_Nov_26_0926;iat_vr;60.05562351849484;
4;EINWANDFREI;positiv;p;0;4;4;6;p;1;1.417101799999955;001;ARAR98;2019_Nov_26_0926;iat_vr;60.05562351849484;
4;BAUM;Natur;q;0;5;5;10;q;1;0.5339440999999852;001;ARAR98;2019_Nov_26_0926;iat_vr;60.05562351849484;
4;HERVORRAGEND;positiv;p;0;6;6;7;p;1;0.883725400000003;001;ARAR98;2019_Nov_26_0926;iat_vr;60.05562351849484;
4;NEGATIV;negativ;q;0;7;7;2;q;1;0.5002459999999473;001;ARAR98;2019_Nov_26_0926;iat_vr;60.05562351849484;
4;STADT;Gemacht;p;0;8;8;16;p;1;0.5505289000000175;001;ARAR98;2019_Nov_26_0926;iat_vr;60.05562351849484;
4;LAMPE;Gemacht;p;0;9;9;19;p;1;0.517143600000054;001;ARAR98;2019_Nov_26_0926;iat_vr;60.05562351849484;
4;WASSER;Natur;q;0;10;10;11;q;1;0.5837753000000703;001;ARAR98;2019_Nov_26_0926;iat_vr;60.05562351849484;
4;SCHÄDLICH;negativ;q;0;11;11;3;q;1;0.5670810000000301;001;ARAR98;2019_Nov_26_0926;iat_vr;60.05562351849484;
4;POSITIV;positiv;p;0;12;12;8;p;1;0.6004259000000047;001;ARAR98;2019_Nov_26_0926;iat_vr;60.05562351849484;
4;BLUME;Natur;q;0;13;13;12;q;1;0.46679549999998926;001;ARAR98;2019_Nov_26_0926;iat_vr;60.05562351849484;
4;AUSGEZEICHNET;positiv;p;0;14;14;5;p;1;0.48356680000006236;001;ARAR98;2019_Nov_26_0926;iat_vr;60.05562351849484;
4;GUT;positiv;p;0;15;15;9;q;0;0.4501517999999578;001;ARAR98;2019_Nov_26_0926;iat_vr;60.05562351849484;
4;SCHLIMM;negativ;q;0;16;16;0;q;1;2.750299899999959;001;ARAR98;2019_Nov_26_0926;iat_vr;60.05562351849484;
4;SCHWACH;negativ;q;0;17;17;4;q;1;0.5837937999999667;001;ARAR98;2019_Nov_26_0926;iat_vr;60.05562351849484;
4;COMPUTER;Gemacht;p;0;18;18;18;p;1;0.567081700000017;001;ARAR98;2019_Nov_26_0926;iat_vr;60.05562351849484;
4;TIER;Natur;q;0;19;19;13;q;1;0.5837127999999439;001;ARAR98;2019_Nov_26_0926;iat_vr;60.05562351849484;
4;STADT;Gemacht;p;1;0;20;16;q;0;0.7335570000000189;001;ARAR98;2019_Nov_26_0926;iat_vr;60.05562351849484;
4;SCHLECHT;negativ;q;1;1;21;1;q;1;0.8331593000000339;001;ARAR98;2019_Nov_26_0926;iat_vr;60.05562351849484;
4;STEIN;Natur;q;1;2;22;14;q;1;0.5837133999999651;001;ARAR98;2019_Nov_26_0926;iat_vr;60.05562351849484;
4;LAMPE;Gemacht;p;1;3;23;19;p;1;0.6171286999999666;001;ARAR98;2019_Nov_26_0926;iat_vr;60.05562351849484;
4;AUSGEZEICHNET;positiv;p;1;4;24;5;p;1;1.3672092999998995;001;ARAR98;2019_Nov_26_0926;iat_vr;60.05562351849484;
4;COMPUTER;Gemacht;p;1;5;25;18;p;1;0.6170918999999913;001;ARAR98;2019_Nov_26_0926;iat_vr;60.05562351849484;
4;BLUME;Natur;q;1;6;26;12;q;1;0.5669602000000395;001;ARAR98;2019_Nov_26_0926;iat_vr;60.05562351849484;
4;POSITIV;positiv;p;1;7;27;8;p;1;0.6504565000000184;001;ARAR98;2019_Nov_26_0926;iat_vr;60.05562351849484;
4;GUT;positiv;p;1;8;28;9;p;1;0.7670210999999654;001;ARAR98;2019_Nov_26_0926;iat_vr;60.05562351849484;
4;BAUM;Natur;q;1;9;29;10;q;1;0.8173272999999881;001;ARAR98;2019_Nov_26_0926;iat_vr;60.05562351849484;
4;KLEIDER;Gemacht;p;1;10;30;17;p;1;0.5504448000000366;001;ARAR98;2019_Nov_26_0926;iat_vr;60.05562351849484;
4;SCHÄDLICH;negativ;q;1;11;31;3;q;1;0.5836312999999791;001;ARAR98;2019_Nov_26_0926;iat_vr;60.05562351849484;
4;NEGATIV;negativ;q;1;12;32;2;q;1;0.6339847000000418;001;ARAR98;2019_Nov_26_0926;iat_vr;60.05562351849484;
4;TIER;Natur;q;1;13;33;13;q;1;0.6670449000000644;001;ARAR98;2019_Nov_26_0926;iat_vr;60.05562351849484;
4;HERVORRAGEND;positiv;p;1;14;34;7;p;1;0.5670687000000498;001;ARAR98;2019_Nov_26_0926;iat_vr;60.05562351849484;
4;SCHLIMM;negativ;q;1;15;35;0;q;1;0.6503404000000046;001;ARAR98;2019_Nov_26_0926;iat_vr;60.05562351849484;
4;SCHWACH;negativ;q;1;16;36;4;q;1;0.6005324000000201;001;ARAR98;2019_Nov_26_0926;iat_vr;60.05562351849484;
4;GEBÄUDE;Gemacht;p;1;17;37;15;p;1;0.5838521000000583;001;ARAR98;2019_Nov_26_0926;iat_vr;60.05562351849484;
4;EINWANDFREI;positiv;p;1;18;38;6;p;1;0.6838389999999208;001;ARAR98;2019_Nov_26_0926;iat_vr;60.05562351849484;
4;WASSER;Natur;q;1;19;39;11;q;1;0.6338263999999754;001;ARAR98;2019_Nov_26_0926;iat_vr;60.05562351849484;
;;;;;;;;;;;001;ARAR98;2019_Nov_26_0926;iat_vr;60.05562351849484;
5;TIER;Natur;p;0;0;0;3;p;1;1.114427800000044;001;ARAR98;2019_Nov_26_0926;iat_vr;60.05562351849484;
5;BLUME;Natur;p;0;1;1;2;p;1;0.5644630000000461;001;ARAR98;2019_Nov_26_0926;iat_vr;60.05562351849484;
5;LAMPE;Gemacht;q;0;2;2;9;q;1;0.5980880999999272;001;ARAR98;2019_Nov_26_0926;iat_vr;60.05562351849484;
5;GEBÄUDE;Gemacht;q;0;3;3;5;q;1;0.5834998000000269;001;ARAR98;2019_Nov_26_0926;iat_vr;60.05562351849484;
5;BAUM;Natur;p;0;4;4;0;p;1;0.6670243999999457;001;ARAR98;2019_Nov_26_0926;iat_vr;60.05562351849484;
5;KLEIDER;Gemacht;q;0;5;5;7;q;1;0.6688811999999871;001;ARAR98;2019_Nov_26_0926;iat_vr;60.05562351849484;
5;STEIN;Natur;p;0;6;6;4;p;1;0.5336429999999837;001;ARAR98;2019_Nov_26_0926;iat_vr;60.05562351849484;
5;WASSER;Natur;p;0;7;7;1;p;1;0.6522953999999572;001;ARAR98;2019_Nov_26_0926;iat_vr;60.05562351849484;
5;COMPUTER;Gemacht;q;0;8;8;8;q;1;0.5483623999999736;001;ARAR98;2019_Nov_26_0926;iat_vr;60.05562351849484;
5;STADT;Gemacht;q;0;9;9;6;q;1;1.2514797000000044;001;ARAR98;2019_Nov_26_0926;iat_vr;60.05562351849484;
5;COMPUTER;Gemacht;q;1;0;10;8;q;1;0.6168753999999126;001;ARAR98;2019_Nov_26_0926;iat_vr;60.05562351849484;
5;BLUME;Natur;p;1;1;11;2;p;1;0.5675017999999454;001;ARAR98;2019_Nov_26_0926;iat_vr;60.05562351849484;
5;STEIN;Natur;p;1;2;12;4;p;1;0.6852407999999741;001;ARAR98;2019_Nov_26_0926;iat_vr;60.05562351849484;
5;BAUM;Natur;p;1;3;13;0;p;1;0.6183170000000473;001;ARAR98;2019_Nov_26_0926;iat_vr;60.05562351849484;
5;TIER;Natur;p;1;4;14;3;p;1;0.7328383000000258;001;ARAR98;2019_Nov_26_0926;iat_vr;60.05562351849484;
5;STADT;Gemacht;q;1;5;15;6;q;1;0.7160343000000466;001;ARAR98;2019_Nov_26_0926;iat_vr;60.05562351849484;
5;WASSER;Natur;p;1;6;16;1;p;1;0.6294313999999304;001;ARAR98;2019_Nov_26_0926;iat_vr;60.05562351849484;
5;GEBÄUDE;Gemacht;q;1;7;17;5;q;1;0.5996384999999691;001;ARAR98;2019_Nov_26_0926;iat_vr;60.05562351849484;
5;KLEIDER;Gemacht;q;1;8;18;7;q;1;0.6531549999999697;001;ARAR98;2019_Nov_26_0926;iat_vr;60.05562351849484;
5;LAMPE;Gemacht;q;1;9;19;9;q;1;0.580222899999967;001;ARAR98;2019_Nov_26_0926;iat_vr;60.05562351849484;
;;;;;;;;;;;001;ARAR98;2019_Nov_26_0926;iat_vr;60.05562351849484;
6;POSITIV;positiv;p;0;0;0;18;p;1;0.6817948999999999;001;ARAR98;2019_Nov_26_0926;iat_vr;60.05562351849484;
6;GUT;positiv;p;0;1;1;19;p;1;0.5654167000000143;001;ARAR98;2019_Nov_26_0926;iat_vr;60.05562351849484;
6;LAMPE;Gemacht;q;0;2;2;9;p;0;0.5514359000000013;001;ARAR98;2019_Nov_26_0926;iat_vr;60.05562351849484;
6;KLEIDER;Gemacht;q;0;3;3;7;q;1;1.4511775999999372;001;ARAR98;2019_Nov_26_0926;iat_vr;60.05562351849484;
6;STADT;Gemacht;q;0;4;4;6;q;1;0.44839779999995244;001;ARAR98;2019_Nov_26_0926;iat_vr;60.05562351849484;
6;STEIN;Natur;p;0;5;5;4;p;1;0.6495862000000443;001;ARAR98;2019_Nov_26_0926;iat_vr;60.05562351849484;
6;SCHWACH;negativ;q;0;6;6;14;q;1;1.5011149999999134;001;ARAR98;2019_Nov_26_0926;iat_vr;60.05562351849484;
6;TIER;Natur;p;0;7;7;3;q;0;0.8971279999999524;001;ARAR98;2019_Nov_26_0926;iat_vr;60.05562351849484;
6;COMPUTER;Gemacht;q;0;8;8;8;q;1;1.4350086000000601;001;ARAR98;2019_Nov_26_0926;iat_vr;60.05562351849484;
6;WASSER;Natur;p;0;9;9;1;p;1;0.6163050000000112;001;ARAR98;2019_Nov_26_0926;iat_vr;60.05562351849484;
6;BAUM;Natur;p;0;10;10;0;p;1;0.6836091000000124;001;ARAR98;2019_Nov_26_0926;iat_vr;60.05562351849484;
6;EINWANDFREI;positiv;p;0;11;11;16;p;1;1.2766346000000794;001;ARAR98;2019_Nov_26_0926;iat_vr;60.05562351849484;
6;NEGATIV;negativ;q;0;12;12;12;q;1;1.0625112999999828;001;ARAR98;2019_Nov_26_0926;iat_vr;60.05562351849484;
6;SCHÄDLICH;negativ;q;0;13;13;13;q;1;0.6333471000000372;001;ARAR98;2019_Nov_26_0926;iat_vr;60.05562351849484;
6;AUSGEZEICHNET;positiv;p;0;14;14;15;p;1;0.6965825999999424;001;ARAR98;2019_Nov_26_0926;iat_vr;60.05562351849484;
6;SCHLECHT;negativ;q;0;15;15;11;q;1;0.6997312999999394;001;ARAR98;2019_Nov_26_0926;iat_vr;60.05562351849484;
6;GEBÄUDE;Gemacht;q;0;16;16;5;q;1;1.1508085000000392;001;ARAR98;2019_Nov_26_0926;iat_vr;60.05562351849484;
6;SCHLIMM;negativ;q;0;17;17;10;q;1;0.6334478999999646;001;ARAR98;2019_Nov_26_0926;iat_vr;60.05562351849484;
6;HERVORRAGEND;positiv;p;0;18;18;17;p;1;0.7501419999999825;001;ARAR98;2019_Nov_26_0926;iat_vr;60.05562351849484;
6;BLUME;Natur;p;0;19;19;2;q;0;1.0001129000000901;001;ARAR98;2019_Nov_26_0926;iat_vr;60.05562351849484;
;;;;;;;;;;;001;ARAR98;2019_Nov_26_0926;iat_vr;60.05562351849484;
7;SCHWACH;negativ;q;0;0;0;14;q;1;1.380020400000035;001;ARAR98;2019_Nov_26_0926;iat_vr;60.05562351849484;
7;EINWANDFREI;positiv;p;0;1;1;16;p;1;1.6337202999999363;001;ARAR98;2019_Nov_26_0926;iat_vr;60.05562351849484;
7;SCHLECHT;negativ;q;0;2;2;11;q;1;0.6503774000000249;001;ARAR98;2019_Nov_26_0926;iat_vr;60.05562351849484;
7;AUSGEZEICHNET;positiv;p;0;3;3;15;p;1;0.6332129999999552;001;ARAR98;2019_Nov_26_0926;iat_vr;60.05562351849484;
7;GEBÄUDE;Gemacht;q;0;4;4;5;q;1;0.8003043999999591;001;ARAR98;2019_Nov_26_0926;iat_vr;60.05562351849484;
7;KLEIDER;Gemacht;q;0;5;5;7;q;1;1.4170431999999664;001;ARAR98;2019_Nov_26_0926;iat_vr;60.05562351849484;
7;LAMPE;Gemacht;q;0;6;6;9;q;1;0.617114000000015;001;ARAR98;2019_Nov_26_0926;iat_vr;60.05562351849484;
7;BLUME;Natur;p;0;7;7;2;p;1;0.6502649000000247;001;ARAR98;2019_Nov_26_0926;iat_vr;60.05562351849484;
7;SCHLIMM;negativ;q;0;8;8;10;q;1;0.8000382000000172;001;ARAR98;2019_Nov_26_0926;iat_vr;60.05562351849484;
7;SCHÄDLICH;negativ;q;0;9;9;13;q;1;0.6338293000000021;001;ARAR98;2019_Nov_26_0926;iat_vr;60.05562351849484;
7;BAUM;Natur;p;0;10;10;0;p;1;0.8005514000000176;001;ARAR98;2019_Nov_26_0926;iat_vr;60.05562351849484;
7;HERVORRAGEND;positiv;p;0;11;11;17;p;1;0.5001809999999978;001;ARAR98;2019_Nov_26_0926;iat_vr;60.05562351849484;
7;WASSER;Natur;p;0;12;12;1;p;1;0.6838815999999497;001;ARAR98;2019_Nov_26_0926;iat_vr;60.05562351849484;
7;POSITIV;positiv;p;0;13;13;18;p;1;0.6505190000000312;001;ARAR98;2019_Nov_26_0926;iat_vr;60.05562351849484;
7;COMPUTER;Gemacht;q;0;14;14;8;q;1;0.6171517000000222;001;ARAR98;2019_Nov_26_0926;iat_vr;60.05562351849484;
7;STEIN;Natur;p;0;15;15;4;p;1;0.6005928000000722;001;ARAR98;2019_Nov_26_0926;iat_vr;60.05562351849484;
7;GUT;positiv;p;0;16;16;19;p;1;0.9334598000000369;001;ARAR98;2019_Nov_26_0926;iat_vr;60.05562351849484;
7;NEGATIV;negativ;q;0;17;17;12;q;1;0.6191420999999764;001;ARAR98;2019_Nov_26_0926;iat_vr;60.05562351849484;
7;STADT;Gemacht;q;0;18;18;6;p;0;0.6336043000000018;001;ARAR98;2019_Nov_26_0926;iat_vr;60.05562351849484;
7;TIER;Natur;p;0;19;19;3;p;1;0.7341492999998991;001;ARAR98;2019_Nov_26_0926;iat_vr;60.05562351849484;
7;HERVORRAGEND;positiv;p;1;0;20;17;p;1;1.600380800000039;001;ARAR98;2019_Nov_26_0926;iat_vr;60.05562351849484;
7;POSITIV;positiv;p;1;1;21;18;p;1;1.100448500000084;001;ARAR98;2019_Nov_26_0926;iat_vr;60.05562351849484;
7;SCHLECHT;negativ;q;1;2;22;11;q;1;0.5338667000000896;001;ARAR98;2019_Nov_26_0926;iat_vr;60.05562351849484;
7;BLUME;Natur;p;1;3;23;2;q;0;0.8675733000000037;001;ARAR98;2019_Nov_26_0926;iat_vr;60.05562351849484;
7;EINWANDFREI;positiv;p;1;4;24;16;p;1;1.800501699999927;001;ARAR98;2019_Nov_26_0926;iat_vr;60.05562351849484;
7;BAUM;Natur;p;1;5;25;0;p;1;0.6503212999999732;001;ARAR98;2019_Nov_26_0926;iat_vr;60.05562351849484;
7;KLEIDER;Gemacht;q;1;6;26;7;q;1;0.7834354000000303;001;ARAR98;2019_Nov_26_0926;iat_vr;60.05562351849484;
7;SCHWACH;negativ;q;1;7;27;14;q;1;0.6505243000000291;001;ARAR98;2019_Nov_26_0926;iat_vr;60.05562351849484;
7;COMPUTER;Gemacht;q;1;8;28;8;q;1;0.8169494999999642;001;ARAR98;2019_Nov_26_0926;iat_vr;60.05562351849484;
7;WASSER;Natur;p;1;9;29;1;p;1;0.8836860999999772;001;ARAR98;2019_Nov_26_0926;iat_vr;60.05562351849484;
7;NEGATIV;negativ;q;1;10;30;12;q;1;1.0012223999999605;001;ARAR98;2019_Nov_26_0926;iat_vr;60.05562351849484;
7;GEBÄUDE;Gemacht;q;1;11;31;5;q;1;0.6822505000000092;001;ARAR98;2019_Nov_26_0926;iat_vr;60.05562351849484;
7;SCHLIMM;negativ;q;1;12;32;10;q;1;0.6522903000000042;001;ARAR98;2019_Nov_26_0926;iat_vr;60.05562351849484;
7;STADT;Gemacht;q;1;13;33;6;q;1;1.1418042000000241;001;ARAR98;2019_Nov_26_0926;iat_vr;60.05562351849484;
7;LAMPE;Gemacht;q;1;14;34;9;q;1;1.0336849999999913;001;ARAR98;2019_Nov_26_0926;iat_vr;60.05562351849484;
7;SCHÄDLICH;negativ;q;1;15;35;13;q;1;0.7837329000000182;001;ARAR98;2019_Nov_26_0926;iat_vr;60.05562351849484;
7;AUSGEZEICHNET;positiv;p;1;16;36;15;p;1;1.05088580000006;001;ARAR98;2019_Nov_26_0926;iat_vr;60.05562351849484;
7;STEIN;Natur;p;1;17;37;4;p;1;0.6802089999999907;001;ARAR98;2019_Nov_26_0926;iat_vr;60.05562351849484;
7;GUT;positiv;p;1;18;38;19;p;1;0.6838884000000007;001;ARAR98;2019_Nov_26_0926;iat_vr;60.05562351849484;
7;TIER;Natur;p;1;19;39;3;p;1;0.5818467000000282;001;ARAR98;2019_Nov_26_0926;iat_vr;60.05562351849484;
;;;;;;;;;;;001;ARAR98;2019_Nov_26_0926;iat_vr;60.05562351849484;
