Block;Word;Category;CorrResp;trials.thisRepN;trials.thisTrialN;trials.thisN;trials.thisIndex;key_resp_2.keys;key_resp_2.corr;key_resp_2.rt;session;participant;date;expName;frameRate;
1;GEBÄUDE;Gemacht;p;0;0;0;5;p;1;1.369563400000061;002;ARAR65;2019_Nov_26_0852;iat_vr;59.984260130121584;
1;LAMPE;Gemacht;p;0;1;1;9;p;1;0.9349380999999539;002;ARAR65;2019_Nov_26_0852;iat_vr;59.984260130121584;
1;STADT;Gemacht;p;0;2;2;6;p;1;0.5481968000001416;002;ARAR65;2019_Nov_26_0852;iat_vr;59.984260130121584;
1;TIER;Natur;q;0;3;3;3;q;1;0.666083800000024;002;ARAR65;2019_Nov_26_0852;iat_vr;59.984260130121584;
1;KLEIDER;Gemacht;p;0;4;4;7;p;1;0.734797700000172;002;ARAR65;2019_Nov_26_0852;iat_vr;59.984260130121584;
1;BAUM;Natur;q;0;5;5;0;q;1;0.6492974000000231;002;ARAR65;2019_Nov_26_0852;iat_vr;59.984260130121584;
1;BLUME;Natur;q;0;6;6;2;q;1;0.7818909000000076;002;ARAR65;2019_Nov_26_0852;iat_vr;59.984260130121584;
1;STEIN;Natur;q;0;7;7;4;q;1;0.9689516999999341;002;ARAR65;2019_Nov_26_0852;iat_vr;59.984260130121584;
1;COMPUTER;Gemacht;p;0;8;8;8;p;1;0.6843761999998605;002;ARAR65;2019_Nov_26_0852;iat_vr;59.984260130121584;
1;WASSER;Natur;q;0;9;9;1;q;1;0.5787801999999829;002;ARAR65;2019_Nov_26_0852;iat_vr;59.984260130121584;
1;BLUME;Natur;q;1;0;10;2;q;1;0.6645742999999129;002;ARAR65;2019_Nov_26_0852;iat_vr;59.984260130121584;
1;LAMPE;Gemacht;p;1;1;11;9;p;1;0.6821919999999864;002;ARAR65;2019_Nov_26_0852;iat_vr;59.984260130121584;
1;STEIN;Natur;q;1;2;12;4;q;1;1.1335884000000078;002;ARAR65;2019_Nov_26_0852;iat_vr;59.984260130121584;
1;WASSER;Natur;q;1;3;13;1;q;1;0.6682792000001427;002;ARAR65;2019_Nov_26_0852;iat_vr;59.984260130121584;
1;TIER;Natur;q;1;4;14;3;q;1;0.5681416999998419;002;ARAR65;2019_Nov_26_0852;iat_vr;59.984260130121584;
1;COMPUTER;Gemacht;p;1;5;15;8;p;1;0.5981758000000355;002;ARAR65;2019_Nov_26_0852;iat_vr;59.984260130121584;
1;STADT;Gemacht;p;1;6;16;6;p;1;0.799692099999902;002;ARAR65;2019_Nov_26_0852;iat_vr;59.984260130121584;
1;GEBÄUDE;Gemacht;p;1;7;17;5;p;1;0.6344240999999329;002;ARAR65;2019_Nov_26_0852;iat_vr;59.984260130121584;
1;BAUM;Natur;q;1;8;18;0;q;1;0.5502395000000888;002;ARAR65;2019_Nov_26_0852;iat_vr;59.984260130121584;
1;KLEIDER;Gemacht;p;1;9;19;7;p;1;0.8173388999998679;002;ARAR65;2019_Nov_26_0852;iat_vr;59.984260130121584;
;;;;;;;;;;;002;ARAR65;2019_Nov_26_0852;iat_vr;59.984260130121584;
2;HERVORRAGEND;positiv;p;0;0;0;7;p;1;1.0739618000000064;002;ARAR65;2019_Nov_26_0852;iat_vr;59.984260130121584;
2;AUSGEZEICHNET;positiv;p;0;1;1;5;p;1;0.5850754999999026;002;ARAR65;2019_Nov_26_0852;iat_vr;59.984260130121584;
2;NEGATIV;negativ;q;0;2;2;2;q;1;0.585852000000159;002;ARAR65;2019_Nov_26_0852;iat_vr;59.984260130121584;
2;SCHLIMM;negativ;q;0;3;3;0;q;1;0.6317681000000448;002;ARAR65;2019_Nov_26_0852;iat_vr;59.984260130121584;
2;EINWANDFREI;positiv;p;0;4;4;6;p;1;0.6169854999998279;002;ARAR65;2019_Nov_26_0852;iat_vr;59.984260130121584;
2;POSITIV;positiv;p;0;5;5;8;p;1;0.6865442000000712;002;ARAR65;2019_Nov_26_0852;iat_vr;59.984260130121584;
2;SCHWACH;negativ;q;0;6;6;4;q;1;0.7333591000001434;002;ARAR65;2019_Nov_26_0852;iat_vr;59.984260130121584;
2;SCHLECHT;negativ;q;0;7;7;1;q;1;0.6061749000000418;002;ARAR65;2019_Nov_26_0852;iat_vr;59.984260130121584;
2;SCHÄDLICH;negativ;q;0;8;8;3;q;1;0.683450799999946;002;ARAR65;2019_Nov_26_0852;iat_vr;59.984260130121584;
2;GUT;positiv;p;0;9;9;9;p;1;0.6169353000000228;002;ARAR65;2019_Nov_26_0852;iat_vr;59.984260130121584;
2;SCHLIMM;negativ;q;1;0;10;0;q;1;0.7996741999997994;002;ARAR65;2019_Nov_26_0852;iat_vr;59.984260130121584;
2;NEGATIV;negativ;q;1;1;11;2;q;1;0.9019015999999738;002;ARAR65;2019_Nov_26_0852;iat_vr;59.984260130121584;
2;SCHÄDLICH;negativ;q;1;2;12;3;q;1;0.6328031000000465;002;ARAR65;2019_Nov_26_0852;iat_vr;59.984260130121584;
2;GUT;positiv;p;1;3;13;9;p;1;0.5974103999999443;002;ARAR65;2019_Nov_26_0852;iat_vr;59.984260130121584;
2;EINWANDFREI;positiv;p;1;4;14;6;p;1;0.7137680999999247;002;ARAR65;2019_Nov_26_0852;iat_vr;59.984260130121584;
2;SCHLECHT;negativ;q;1;5;15;1;q;1;0.6004623000001175;002;ARAR65;2019_Nov_26_0852;iat_vr;59.984260130121584;
2;AUSGEZEICHNET;positiv;p;1;6;16;5;p;1;0.7161301999999523;002;ARAR65;2019_Nov_26_0852;iat_vr;59.984260130121584;
2;HERVORRAGEND;positiv;p;1;7;17;7;p;1;0.6684694000000491;002;ARAR65;2019_Nov_26_0852;iat_vr;59.984260130121584;
2;POSITIV;positiv;p;1;8;18;8;p;1;0.6981256999999914;002;ARAR65;2019_Nov_26_0852;iat_vr;59.984260130121584;
2;SCHWACH;negativ;q;1;9;19;4;q;1;0.5966390999999476;002;ARAR65;2019_Nov_26_0852;iat_vr;59.984260130121584;
;;;;;;;;;;;002;ARAR65;2019_Nov_26_0852;iat_vr;59.984260130121584;
3;GUT;positiv;p;0;0;0;9;p;1;1.7029211999999916;002;ARAR65;2019_Nov_26_0852;iat_vr;59.984260130121584;
3;SCHLECHT;negativ;q;0;1;1;1;q;1;1.700602500000059;002;ARAR65;2019_Nov_26_0852;iat_vr;59.984260130121584;
3;BLUME;Natur;q;0;2;2;12;q;1;0.6854828999998972;002;ARAR65;2019_Nov_26_0852;iat_vr;59.984260130121584;
3;STEIN;Natur;q;0;3;3;14;q;1;0.6289489999999205;002;ARAR65;2019_Nov_26_0852;iat_vr;59.984260130121584;
3;STADT;Gemacht;p;0;4;4;16;p;1;0.6134142999999312;002;ARAR65;2019_Nov_26_0852;iat_vr;59.984260130121584;
3;SCHÄDLICH;negativ;q;0;5;5;3;q;1;0.6620001999999658;002;ARAR65;2019_Nov_26_0852;iat_vr;59.984260130121584;
3;TIER;Natur;q;0;6;6;13;q;1;0.5825505000000248;002;ARAR65;2019_Nov_26_0852;iat_vr;59.984260130121584;
3;POSITIV;positiv;p;0;7;7;8;p;1;0.8147679999999582;002;ARAR65;2019_Nov_26_0852;iat_vr;59.984260130121584;
3;GEBÄUDE;Gemacht;p;0;8;8;15;p;1;0.5287284999999429;002;ARAR65;2019_Nov_26_0852;iat_vr;59.984260130121584;
3;BAUM;Natur;q;0;9;9;10;q;1;0.8503637999999683;002;ARAR65;2019_Nov_26_0852;iat_vr;59.984260130121584;
3;WASSER;Natur;q;0;10;10;11;q;1;0.6176004999999805;002;ARAR65;2019_Nov_26_0852;iat_vr;59.984260130121584;
3;AUSGEZEICHNET;positiv;p;0;11;11;5;p;1;0.6172426000000542;002;ARAR65;2019_Nov_26_0852;iat_vr;59.984260130121584;
3;EINWANDFREI;positiv;p;0;12;12;6;p;1;0.60074950000012;002;ARAR65;2019_Nov_26_0852;iat_vr;59.984260130121584;
3;SCHWACH;negativ;q;0;13;13;4;q;1;0.5848844000001918;002;ARAR65;2019_Nov_26_0852;iat_vr;59.984260130121584;
3;SCHLIMM;negativ;q;0;14;14;0;q;1;0.6161914000001616;002;ARAR65;2019_Nov_26_0852;iat_vr;59.984260130121584;
3;COMPUTER;Gemacht;p;0;15;15;18;p;1;0.7811538000000837;002;ARAR65;2019_Nov_26_0852;iat_vr;59.984260130121584;
3;LAMPE;Gemacht;p;0;16;16;19;p;1;0.7136808000000201;002;ARAR65;2019_Nov_26_0852;iat_vr;59.984260130121584;
3;HERVORRAGEND;positiv;p;0;17;17;7;p;1;0.7513989000001402;002;ARAR65;2019_Nov_26_0852;iat_vr;59.984260130121584;
3;NEGATIV;negativ;q;0;18;18;2;q;1;0.5832735999999841;002;ARAR65;2019_Nov_26_0852;iat_vr;59.984260130121584;
3;KLEIDER;Gemacht;p;0;19;19;17;p;1;0.6845584000000144;002;ARAR65;2019_Nov_26_0852;iat_vr;59.984260130121584;
;;;;;;;;;;;002;ARAR65;2019_Nov_26_0852;iat_vr;59.984260130121584;
4;SCHÄDLICH;negativ;q;0;0;0;3;q;1;1.0588952000000518;002;ARAR65;2019_Nov_26_0852;iat_vr;59.984260130121584;
4;SCHLECHT;negativ;q;0;1;1;1;p;0;0.650910900000099;002;ARAR65;2019_Nov_26_0852;iat_vr;59.984260130121584;
4;STEIN;Natur;q;0;2;2;14;q;1;1.0184582000001683;002;ARAR65;2019_Nov_26_0852;iat_vr;59.984260130121584;
4;BAUM;Natur;q;0;3;3;10;q;1;0.665727699999934;002;ARAR65;2019_Nov_26_0852;iat_vr;59.984260130121584;
4;SCHLIMM;negativ;q;0;4;4;0;q;1;1.8311550999999326;002;ARAR65;2019_Nov_26_0852;iat_vr;59.984260130121584;
4;GUT;positiv;p;0;5;5;9;p;1;0.8508602000001702;002;ARAR65;2019_Nov_26_0852;iat_vr;59.984260130121584;
4;STADT;Gemacht;p;0;6;6;16;p;1;0.6169514000000618;002;ARAR65;2019_Nov_26_0852;iat_vr;59.984260130121584;
4;EINWANDFREI;positiv;p;0;7;7;6;p;1;0.7095922999999402;002;ARAR65;2019_Nov_26_0852;iat_vr;59.984260130121584;
4;KLEIDER;Gemacht;p;0;8;8;17;p;1;1.5483712999998716;002;ARAR65;2019_Nov_26_0852;iat_vr;59.984260130121584;
4;SCHWACH;negativ;q;0;9;9;4;q;1;0.6336049999999886;002;ARAR65;2019_Nov_26_0852;iat_vr;59.984260130121584;
4;AUSGEZEICHNET;positiv;p;0;10;10;5;p;1;0.6933610999999473;002;ARAR65;2019_Nov_26_0852;iat_vr;59.984260130121584;
4;COMPUTER;Gemacht;p;0;11;11;18;p;1;0.704024200000049;002;ARAR65;2019_Nov_26_0852;iat_vr;59.984260130121584;
4;BLUME;Natur;q;0;12;12;12;q;1;1.449927900000148;002;ARAR65;2019_Nov_26_0852;iat_vr;59.984260130121584;
4;LAMPE;Gemacht;p;0;13;13;19;p;1;0.6842152000001533;002;ARAR65;2019_Nov_26_0852;iat_vr;59.984260130121584;
4;NEGATIV;negativ;q;0;14;14;2;q;1;0.6356412999998611;002;ARAR65;2019_Nov_26_0852;iat_vr;59.984260130121584;
4;GEBÄUDE;Gemacht;p;0;15;15;15;p;1;0.7312772999998742;002;ARAR65;2019_Nov_26_0852;iat_vr;59.984260130121584;
4;WASSER;Natur;q;0;16;16;11;q;1;0.596556400000054;002;ARAR65;2019_Nov_26_0852;iat_vr;59.984260130121584;
4;TIER;Natur;q;0;17;17;13;q;1;0.6306236000000354;002;ARAR65;2019_Nov_26_0852;iat_vr;59.984260130121584;
4;POSITIV;positiv;p;0;18;18;8;p;1;1.1166688999999224;002;ARAR65;2019_Nov_26_0852;iat_vr;59.984260130121584;
4;HERVORRAGEND;positiv;p;0;19;19;7;p;1;1.1354538000000503;002;ARAR65;2019_Nov_26_0852;iat_vr;59.984260130121584;
4;SCHLIMM;negativ;q;1;0;20;0;q;1;0.6295523999999659;002;ARAR65;2019_Nov_26_0852;iat_vr;59.984260130121584;
4;HERVORRAGEND;positiv;p;1;1;21;7;p;1;0.8671379999998408;002;ARAR65;2019_Nov_26_0852;iat_vr;59.984260130121584;
4;BAUM;Natur;q;1;2;22;10;q;1;0.5841218999999;002;ARAR65;2019_Nov_26_0852;iat_vr;59.984260130121584;
4;EINWANDFREI;positiv;p;1;3;23;6;p;1;0.6674058999999488;002;ARAR65;2019_Nov_26_0852;iat_vr;59.984260130121584;
4;TIER;Natur;q;1;4;24;13;q;1;0.6184826999999586;002;ARAR65;2019_Nov_26_0852;iat_vr;59.984260130121584;
4;COMPUTER;Gemacht;p;1;5;25;18;p;1;0.6468857000002117;002;ARAR65;2019_Nov_26_0852;iat_vr;59.984260130121584;
4;STADT;Gemacht;p;1;6;26;16;p;1;0.9792965999999979;002;ARAR65;2019_Nov_26_0852;iat_vr;59.984260130121584;
4;GEBÄUDE;Gemacht;p;1;7;27;15;p;1;0.6659068999999818;002;ARAR65;2019_Nov_26_0852;iat_vr;59.984260130121584;
4;SCHWACH;negativ;q;1;8;28;4;q;1;0.6347536999999193;002;ARAR65;2019_Nov_26_0852;iat_vr;59.984260130121584;
4;POSITIV;positiv;p;1;9;29;8;p;1;0.7628575999999612;002;ARAR65;2019_Nov_26_0852;iat_vr;59.984260130121584;
4;SCHÄDLICH;negativ;q;1;10;30;3;q;1;0.8021292000000813;002;ARAR65;2019_Nov_26_0852;iat_vr;59.984260130121584;
4;STEIN;Natur;q;1;11;31;14;q;1;0.6959165999999186;002;ARAR65;2019_Nov_26_0852;iat_vr;59.984260130121584;
4;AUSGEZEICHNET;positiv;p;1;12;32;5;p;1;0.5934250000000247;002;ARAR65;2019_Nov_26_0852;iat_vr;59.984260130121584;
4;NEGATIV;negativ;q;1;13;33;2;q;1;0.6681000999999469;002;ARAR65;2019_Nov_26_0852;iat_vr;59.984260130121584;
4;KLEIDER;Gemacht;p;1;14;34;17;p;1;0.7349334999998973;002;ARAR65;2019_Nov_26_0852;iat_vr;59.984260130121584;
4;LAMPE;Gemacht;p;1;15;35;19;p;1;0.7617330000000493;002;ARAR65;2019_Nov_26_0852;iat_vr;59.984260130121584;
4;BLUME;Natur;q;1;16;36;12;q;1;0.6467623999999432;002;ARAR65;2019_Nov_26_0852;iat_vr;59.984260130121584;
4;SCHLECHT;negativ;q;1;17;37;1;q;1;0.684897600000113;002;ARAR65;2019_Nov_26_0852;iat_vr;59.984260130121584;
4;GUT;positiv;p;1;18;38;9;p;1;0.5519707000000835;002;ARAR65;2019_Nov_26_0852;iat_vr;59.984260130121584;
4;WASSER;Natur;q;1;19;39;11;q;1;0.5499205999999504;002;ARAR65;2019_Nov_26_0852;iat_vr;59.984260130121584;
;;;;;;;;;;;002;ARAR65;2019_Nov_26_0852;iat_vr;59.984260130121584;
5;STEIN;Natur;p;0;0;0;4;p;1;1.7936816999999792;002;ARAR65;2019_Nov_26_0852;iat_vr;59.984260130121584;
5;STADT;Gemacht;q;0;1;1;6;q;1;0.6966660999999021;002;ARAR65;2019_Nov_26_0852;iat_vr;59.984260130121584;
5;BLUME;Natur;p;0;2;2;2;p;1;0.5694592999998349;002;ARAR65;2019_Nov_26_0852;iat_vr;59.984260130121584;
5;LAMPE;Gemacht;q;0;3;3;9;q;1;0.735345499999994;002;ARAR65;2019_Nov_26_0852;iat_vr;59.984260130121584;
5;BAUM;Natur;p;0;4;4;0;p;1;0.6131619000000228;002;ARAR65;2019_Nov_26_0852;iat_vr;59.984260130121584;
5;KLEIDER;Gemacht;q;0;5;5;7;q;1;0.712216699999999;002;ARAR65;2019_Nov_26_0852;iat_vr;59.984260130121584;
5;COMPUTER;Gemacht;q;0;6;6;8;q;1;0.6976238000002013;002;ARAR65;2019_Nov_26_0852;iat_vr;59.984260130121584;
5;WASSER;Natur;p;0;7;7;1;p;1;0.5342583999999988;002;ARAR65;2019_Nov_26_0852;iat_vr;59.984260130121584;
5;GEBÄUDE;Gemacht;q;0;8;8;5;q;1;0.6581012999999984;002;ARAR65;2019_Nov_26_0852;iat_vr;59.984260130121584;
5;TIER;Natur;p;0;9;9;3;p;1;0.5836971000001085;002;ARAR65;2019_Nov_26_0852;iat_vr;59.984260130121584;
5;BLUME;Natur;p;1;0;10;2;p;1;0.6171168999999281;002;ARAR65;2019_Nov_26_0852;iat_vr;59.984260130121584;
5;COMPUTER;Gemacht;q;1;1;11;8;q;1;0.7148987000000488;002;ARAR65;2019_Nov_26_0852;iat_vr;59.984260130121584;
5;STEIN;Natur;p;1;2;12;4;p;1;0.568139599999995;002;ARAR65;2019_Nov_26_0852;iat_vr;59.984260130121584;
5;STADT;Gemacht;q;1;3;13;6;q;1;0.6799794999999449;002;ARAR65;2019_Nov_26_0852;iat_vr;59.984260130121584;
5;BAUM;Natur;p;1;4;14;0;p;1;0.5330691999999999;002;ARAR65;2019_Nov_26_0852;iat_vr;59.984260130121584;
5;GEBÄUDE;Gemacht;q;1;5;15;5;q;1;0.7183623999999327;002;ARAR65;2019_Nov_26_0852;iat_vr;59.984260130121584;
5;TIER;Natur;p;1;6;16;3;p;1;0.6004327000000558;002;ARAR65;2019_Nov_26_0852;iat_vr;59.984260130121584;
5;WASSER;Natur;p;1;7;17;1;p;1;0.7169461000000865;002;ARAR65;2019_Nov_26_0852;iat_vr;59.984260130121584;
5;KLEIDER;Gemacht;q;1;8;18;7;q;1;0.8495039000001725;002;ARAR65;2019_Nov_26_0852;iat_vr;59.984260130121584;
5;LAMPE;Gemacht;q;1;9;19;9;q;1;0.7488356999999723;002;ARAR65;2019_Nov_26_0852;iat_vr;59.984260130121584;
;;;;;;;;;;;002;ARAR65;2019_Nov_26_0852;iat_vr;59.984260130121584;
6;LAMPE;Gemacht;q;0;0;0;9;q;1;1.5473511000000144;002;ARAR65;2019_Nov_26_0852;iat_vr;59.984260130121584;
6;NEGATIV;negativ;q;0;1;1;12;q;1;1.00384629999985;002;ARAR65;2019_Nov_26_0852;iat_vr;59.984260130121584;
6;GUT;positiv;p;0;2;2;19;p;1;0.7506168999998408;002;ARAR65;2019_Nov_26_0852;iat_vr;59.984260130121584;
6;KLEIDER;Gemacht;q;0;3;3;7;q;1;0.7016737000001285;002;ARAR65;2019_Nov_26_0852;iat_vr;59.984260130121584;
6;WASSER;Natur;p;0;4;4;1;p;1;0.6003257999998368;002;ARAR65;2019_Nov_26_0852;iat_vr;59.984260130121584;
6;COMPUTER;Gemacht;q;0;5;5;8;q;1;0.6334548999998333;002;ARAR65;2019_Nov_26_0852;iat_vr;59.984260130121584;
6;GEBÄUDE;Gemacht;q;0;6;6;5;q;1;0.7502853999999388;002;ARAR65;2019_Nov_26_0852;iat_vr;59.984260130121584;
6;POSITIV;positiv;p;0;7;7;18;p;1;0.6345155999999861;002;ARAR65;2019_Nov_26_0852;iat_vr;59.984260130121584;
6;HERVORRAGEND;positiv;p;0;8;8;17;p;1;0.8495264999999108;002;ARAR65;2019_Nov_26_0852;iat_vr;59.984260130121584;
6;EINWANDFREI;positiv;p;0;9;9;16;p;1;0.6492005000000063;002;ARAR65;2019_Nov_26_0852;iat_vr;59.984260130121584;
6;AUSGEZEICHNET;positiv;p;0;10;10;15;p;1;0.5966562000000977;002;ARAR65;2019_Nov_26_0852;iat_vr;59.984260130121584;
6;TIER;Natur;p;0;11;11;3;p;1;0.6508023000001231;002;ARAR65;2019_Nov_26_0852;iat_vr;59.984260130121584;
6;SCHÄDLICH;negativ;q;0;12;12;13;q;1;0.6022542999999132;002;ARAR65;2019_Nov_26_0852;iat_vr;59.984260130121584;
6;SCHLECHT;negativ;q;0;13;13;11;q;1;0.745800700000018;002;ARAR65;2019_Nov_26_0852;iat_vr;59.984260130121584;
6;SCHLIMM;negativ;q;0;14;14;10;q;1;0.5988615000001118;002;ARAR65;2019_Nov_26_0852;iat_vr;59.984260130121584;
6;STEIN;Natur;p;0;15;15;4;p;1;0.7339304000001903;002;ARAR65;2019_Nov_26_0852;iat_vr;59.984260130121584;
6;SCHWACH;negativ;q;0;16;16;14;q;1;0.6017042999999376;002;ARAR65;2019_Nov_26_0852;iat_vr;59.984260130121584;
6;STADT;Gemacht;q;0;17;17;6;q;1;0.7648068000000876;002;ARAR65;2019_Nov_26_0852;iat_vr;59.984260130121584;
6;BLUME;Natur;p;0;18;18;2;p;1;0.5797617999999147;002;ARAR65;2019_Nov_26_0852;iat_vr;59.984260130121584;
6;BAUM;Natur;p;0;19;19;0;p;1;0.632781100000102;002;ARAR65;2019_Nov_26_0852;iat_vr;59.984260130121584;
;;;;;;;;;;;002;ARAR65;2019_Nov_26_0852;iat_vr;59.984260130121584;
7;KLEIDER;Gemacht;q;0;0;0;7;q;1;0.9556916999999885;002;ARAR65;2019_Nov_26_0852;iat_vr;59.984260130121584;
7;BAUM;Natur;p;0;1;1;0;p;1;0.6454753000000437;002;ARAR65;2019_Nov_26_0852;iat_vr;59.984260130121584;
7;EINWANDFREI;positiv;p;0;2;2;16;p;1;0.5765192999999726;002;ARAR65;2019_Nov_26_0852;iat_vr;59.984260130121584;
7;AUSGEZEICHNET;positiv;p;0;3;3;15;p;1;0.6335851000001185;002;ARAR65;2019_Nov_26_0852;iat_vr;59.984260130121584;
7;SCHWACH;negativ;q;0;4;4;14;q;1;0.6503950999999688;002;ARAR65;2019_Nov_26_0852;iat_vr;59.984260130121584;
7;SCHLIMM;negativ;q;0;5;5;10;q;1;0.6022636000000148;002;ARAR65;2019_Nov_26_0852;iat_vr;59.984260130121584;
7;POSITIV;positiv;p;0;6;6;18;p;1;0.6015686999999161;002;ARAR65;2019_Nov_26_0852;iat_vr;59.984260130121584;
7;TIER;Natur;p;0;7;7;3;p;1;0.5989600000000337;002;ARAR65;2019_Nov_26_0852;iat_vr;59.984260130121584;
7;BLUME;Natur;p;0;8;8;2;p;1;0.5668900999999096;002;ARAR65;2019_Nov_26_0852;iat_vr;59.984260130121584;
7;GUT;positiv;p;0;9;9;19;p;1;0.8170262000001003;002;ARAR65;2019_Nov_26_0852;iat_vr;59.984260130121584;
7;SCHÄDLICH;negativ;q;0;10;10;13;q;1;0.5852345999999216;002;ARAR65;2019_Nov_26_0852;iat_vr;59.984260130121584;
7;LAMPE;Gemacht;q;0;11;11;9;q;1;0.7136591000000863;002;ARAR65;2019_Nov_26_0852;iat_vr;59.984260130121584;
7;GEBÄUDE;Gemacht;q;0;12;12;5;q;1;0.6157479999999396;002;ARAR65;2019_Nov_26_0852;iat_vr;59.984260130121584;
7;STEIN;Natur;p;0;13;13;4;p;1;0.5841134000002057;002;ARAR65;2019_Nov_26_0852;iat_vr;59.984260130121584;
7;NEGATIV;negativ;q;0;14;14;12;q;1;0.7192394000001059;002;ARAR65;2019_Nov_26_0852;iat_vr;59.984260130121584;
7;STADT;Gemacht;q;0;15;15;6;q;1;0.7644669999999678;002;ARAR65;2019_Nov_26_0852;iat_vr;59.984260130121584;
7;WASSER;Natur;p;0;16;16;1;p;1;0.5795345999999881;002;ARAR65;2019_Nov_26_0852;iat_vr;59.984260130121584;
7;SCHLECHT;negativ;q;0;17;17;11;q;1;0.634943599999815;002;ARAR65;2019_Nov_26_0852;iat_vr;59.984260130121584;
7;COMPUTER;Gemacht;q;0;18;18;8;q;1;0.6003622999999152;002;ARAR65;2019_Nov_26_0852;iat_vr;59.984260130121584;
7;HERVORRAGEND;positiv;p;0;19;19;17;p;1;0.6674623999999767;002;ARAR65;2019_Nov_26_0852;iat_vr;59.984260130121584;
7;KLEIDER;Gemacht;q;1;0;20;7;q;1;0.6456971000000067;002;ARAR65;2019_Nov_26_0852;iat_vr;59.984260130121584;
7;SCHWACH;negativ;q;1;1;21;14;q;1;0.6537948000000142;002;ARAR65;2019_Nov_26_0852;iat_vr;59.984260130121584;
7;STADT;Gemacht;q;1;2;22;6;q;1;0.6501021000001401;002;ARAR65;2019_Nov_26_0852;iat_vr;59.984260130121584;
7;STEIN;Natur;p;1;3;23;4;p;1;0.566868999999997;002;ARAR65;2019_Nov_26_0852;iat_vr;59.984260130121584;
7;AUSGEZEICHNET;positiv;p;1;4;24;15;p;1;0.6633903000001737;002;ARAR65;2019_Nov_26_0852;iat_vr;59.984260130121584;
7;SCHLECHT;negativ;q;1;5;25;11;q;1;0.5680611000000226;002;ARAR65;2019_Nov_26_0852;iat_vr;59.984260130121584;
7;COMPUTER;Gemacht;q;1;6;26;8;q;1;0.5952738999999383;002;ARAR65;2019_Nov_26_0852;iat_vr;59.984260130121584;
7;GUT;positiv;p;1;7;27;19;p;1;0.6000607000000855;002;ARAR65;2019_Nov_26_0852;iat_vr;59.984260130121584;
7;BAUM;Natur;p;1;8;28;0;p;1;0.6003759000000173;002;ARAR65;2019_Nov_26_0852;iat_vr;59.984260130121584;
7;EINWANDFREI;positiv;p;1;9;29;16;p;1;0.7989480000001095;002;ARAR65;2019_Nov_26_0852;iat_vr;59.984260130121584;
7;BLUME;Natur;p;1;10;30;2;p;1;0.5830859000000146;002;ARAR65;2019_Nov_26_0852;iat_vr;59.984260130121584;
7;HERVORRAGEND;positiv;p;1;11;31;17;p;1;0.6789184000001569;002;ARAR65;2019_Nov_26_0852;iat_vr;59.984260130121584;
7;SCHÄDLICH;negativ;q;1;12;32;13;q;1;0.5790067000000363;002;ARAR65;2019_Nov_26_0852;iat_vr;59.984260130121584;
7;NEGATIV;negativ;q;1;13;33;12;q;1;0.6845235000000685;002;ARAR65;2019_Nov_26_0852;iat_vr;59.984260130121584;
7;GEBÄUDE;Gemacht;q;1;14;34;5;q;1;0.6636201999999685;002;ARAR65;2019_Nov_26_0852;iat_vr;59.984260130121584;
7;WASSER;Natur;p;1;15;35;1;p;1;0.8317375000001448;002;ARAR65;2019_Nov_26_0852;iat_vr;59.984260130121584;
7;TIER;Natur;p;1;16;36;3;p;1;0.579539000000068;002;ARAR65;2019_Nov_26_0852;iat_vr;59.984260130121584;
7;POSITIV;positiv;p;1;17;37;18;p;1;0.5992447999999513;002;ARAR65;2019_Nov_26_0852;iat_vr;59.984260130121584;
7;SCHLIMM;negativ;q;1;18;38;10;q;1;0.6336826000001565;002;ARAR65;2019_Nov_26_0852;iat_vr;59.984260130121584;
7;LAMPE;Gemacht;q;1;19;39;9;q;1;0.7526390999998966;002;ARAR65;2019_Nov_26_0852;iat_vr;59.984260130121584;
;;;;;;;;;;;002;ARAR65;2019_Nov_26_0852;iat_vr;59.984260130121584;
