Block;Word;Category;CorrResp;trials.thisRepN;trials.thisTrialN;trials.thisN;trials.thisIndex;key_resp_2.keys;key_resp_2.corr;key_resp_2.rt;session;participant;date;expName;frameRate;
1;KLEIDER;Gemacht;p;0;0;0;7;p;1;1.3904815999994753;002;ARDR97;2019_Nov_25_1355;iat_vr;60.12003566298503;
1;STADT;Gemacht;p;0;1;1;6;p;1;0.7534408999999869;002;ARDR97;2019_Nov_25_1355;iat_vr;60.12003566298503;
1;BAUM;Natur;q;0;2;2;0;q;1;0.724788700001227;002;ARDR97;2019_Nov_25_1355;iat_vr;60.12003566298503;
1;TIER;Natur;q;0;3;3;3;q;1;0.782582600000751;002;ARDR97;2019_Nov_25_1355;iat_vr;60.12003566298503;
1;WASSER;Natur;q;0;4;4;1;q;1;0.7790437000003294;002;ARDR97;2019_Nov_25_1355;iat_vr;60.12003566298503;
1;COMPUTER;Gemacht;p;0;5;5;8;p;1;0.7836448000016389;002;ARDR97;2019_Nov_25_1355;iat_vr;60.12003566298503;
1;LAMPE;Gemacht;p;0;6;6;9;p;1;1.1488124999996217;002;ARDR97;2019_Nov_25_1355;iat_vr;60.12003566298503;
1;GEBÄUDE;Gemacht;p;0;7;7;5;p;1;0.6729462000002968;002;ARDR97;2019_Nov_25_1355;iat_vr;60.12003566298503;
1;STEIN;Natur;q;0;8;8;4;q;1;1.257483500001399;002;ARDR97;2019_Nov_25_1355;iat_vr;60.12003566298503;
1;BLUME;Natur;q;0;9;9;2;q;1;0.6155700999988767;002;ARDR97;2019_Nov_25_1355;iat_vr;60.12003566298503;
1;TIER;Natur;q;1;0;10;3;q;1;0.6817964000001666;002;ARDR97;2019_Nov_25_1355;iat_vr;60.12003566298503;
1;KLEIDER;Gemacht;p;1;1;11;7;p;1;0.7465587000006053;002;ARDR97;2019_Nov_25_1355;iat_vr;60.12003566298503;
1;LAMPE;Gemacht;p;1;2;12;9;p;1;1.0193399999989197;002;ARDR97;2019_Nov_25_1355;iat_vr;60.12003566298503;
1;BAUM;Natur;q;1;3;13;0;q;1;0.7008722999999009;002;ARDR97;2019_Nov_25_1355;iat_vr;60.12003566298503;
1;GEBÄUDE;Gemacht;p;1;4;14;5;p;1;1.1142944000021089;002;ARDR97;2019_Nov_25_1355;iat_vr;60.12003566298503;
1;BLUME;Natur;q;1;5;15;2;q;1;0.7484475000019302;002;ARDR97;2019_Nov_25_1355;iat_vr;60.12003566298503;
1;WASSER;Natur;q;1;6;16;1;q;1;1.5135978999969666;002;ARDR97;2019_Nov_25_1355;iat_vr;60.12003566298503;
1;STEIN;Natur;q;1;7;17;4;q;1;0.648513100000855;002;ARDR97;2019_Nov_25_1355;iat_vr;60.12003566298503;
1;COMPUTER;Gemacht;p;1;8;18;8;p;1;0.6983094000024721;002;ARDR97;2019_Nov_25_1355;iat_vr;60.12003566298503;
1;STADT;Gemacht;p;1;9;19;6;p;1;0.6323013999972318;002;ARDR97;2019_Nov_25_1355;iat_vr;60.12003566298503;
;;;;;;;;;;;002;ARDR97;2019_Nov_25_1355;iat_vr;60.12003566298503;
2;SCHLIMM;negativ;q;0;0;0;0;q;1;0.9060967000004894;002;ARDR97;2019_Nov_25_1355;iat_vr;60.12003566298503;
2;HERVORRAGEND;positiv;p;0;1;1;7;p;1;0.6916927999991458;002;ARDR97;2019_Nov_25_1355;iat_vr;60.12003566298503;
2;SCHWACH;negativ;q;0;2;2;4;q;1;0.8640481000002183;002;ARDR97;2019_Nov_25_1355;iat_vr;60.12003566298503;
2;POSITIV;positiv;p;0;3;3;8;p;1;1.2154626000010467;002;ARDR97;2019_Nov_25_1355;iat_vr;60.12003566298503;
2;EINWANDFREI;positiv;p;0;4;4;6;p;1;0.8759113999985857;002;ARDR97;2019_Nov_25_1355;iat_vr;60.12003566298503;
2;AUSGEZEICHNET;positiv;p;0;5;5;5;p;1;0.5581711000013456;002;ARDR97;2019_Nov_25_1355;iat_vr;60.12003566298503;
2;GUT;positiv;p;0;6;6;9;p;1;0.7352028999994218;002;ARDR97;2019_Nov_25_1355;iat_vr;60.12003566298503;
2;SCHLECHT;negativ;q;0;7;7;1;q;1;0.6639566999983799;002;ARDR97;2019_Nov_25_1355;iat_vr;60.12003566298503;
2;SCHÄDLICH;negativ;q;0;8;8;3;q;1;0.662516799999139;002;ARDR97;2019_Nov_25_1355;iat_vr;60.12003566298503;
2;NEGATIV;negativ;q;0;9;9;2;q;1;0.6971716000007291;002;ARDR97;2019_Nov_25_1355;iat_vr;60.12003566298503;
2;GUT;positiv;p;1;0;10;9;p;1;0.7323854999995092;002;ARDR97;2019_Nov_25_1355;iat_vr;60.12003566298503;
2;SCHLIMM;negativ;q;1;1;11;0;q;1;0.7314790000018547;002;ARDR97;2019_Nov_25_1355;iat_vr;60.12003566298503;
2;POSITIV;positiv;p;1;2;12;8;p;1;0.6643586999998661;002;ARDR97;2019_Nov_25_1355;iat_vr;60.12003566298503;
2;HERVORRAGEND;positiv;p;1;3;13;7;p;1;0.6805708000028972;002;ARDR97;2019_Nov_25_1355;iat_vr;60.12003566298503;
2;SCHLECHT;negativ;q;1;4;14;1;q;1;0.9297011000016937;002;ARDR97;2019_Nov_25_1355;iat_vr;60.12003566298503;
2;NEGATIV;negativ;q;1;5;15;2;q;1;0.9495600999980525;002;ARDR97;2019_Nov_25_1355;iat_vr;60.12003566298503;
2;AUSGEZEICHNET;positiv;p;1;6;16;5;p;1;1.4126939999987371;002;ARDR97;2019_Nov_25_1355;iat_vr;60.12003566298503;
2;SCHWACH;negativ;q;1;7;17;4;q;1;1.6314117000001715;002;ARDR97;2019_Nov_25_1355;iat_vr;60.12003566298503;
2;SCHÄDLICH;negativ;q;1;8;18;3;q;1;0.7294976999983191;002;ARDR97;2019_Nov_25_1355;iat_vr;60.12003566298503;
2;EINWANDFREI;positiv;p;1;9;19;6;p;1;0.6446905000011611;002;ARDR97;2019_Nov_25_1355;iat_vr;60.12003566298503;
;;;;;;;;;;;002;ARDR97;2019_Nov_25_1355;iat_vr;60.12003566298503;
3;WASSER;Natur;q;0;0;0;11;q;1;1.2184557000000495;002;ARDR97;2019_Nov_25_1355;iat_vr;60.12003566298503;
3;GUT;positiv;p;0;1;1;9;p;1;0.6987194000030286;002;ARDR97;2019_Nov_25_1355;iat_vr;60.12003566298503;
3;BAUM;Natur;q;0;2;2;10;q;1;2.059909499999776;002;ARDR97;2019_Nov_25_1355;iat_vr;60.12003566298503;
3;COMPUTER;Gemacht;p;0;3;3;18;p;1;0.8085210999997798;002;ARDR97;2019_Nov_25_1355;iat_vr;60.12003566298503;
3;SCHLECHT;negativ;q;0;4;4;1;q;1;1.514543200002663;002;ARDR97;2019_Nov_25_1355;iat_vr;60.12003566298503;
3;POSITIV;positiv;p;0;5;5;8;p;1;0.8968413000002329;002;ARDR97;2019_Nov_25_1355;iat_vr;60.12003566298503;
3;SCHLIMM;negativ;q;0;6;6;0;q;1;1.163540000001376;002;ARDR97;2019_Nov_25_1355;iat_vr;60.12003566298503;
3;AUSGEZEICHNET;positiv;p;0;7;7;5;p;1;0.8629775000008522;002;ARDR97;2019_Nov_25_1355;iat_vr;60.12003566298503;
3;KLEIDER;Gemacht;p;0;8;8;17;p;1;0.8149922000011429;002;ARDR97;2019_Nov_25_1355;iat_vr;60.12003566298503;
3;HERVORRAGEND;positiv;p;0;9;9;7;p;1;0.9449882000008074;002;ARDR97;2019_Nov_25_1355;iat_vr;60.12003566298503;
3;STEIN;Natur;q;0;10;10;14;q;1;0.7650955000026443;002;ARDR97;2019_Nov_25_1355;iat_vr;60.12003566298503;
3;GEBÄUDE;Gemacht;p;0;11;11;15;p;1;0.818049699999392;002;ARDR97;2019_Nov_25_1355;iat_vr;60.12003566298503;
3;STADT;Gemacht;p;0;12;12;16;p;1;0.8151589000008244;002;ARDR97;2019_Nov_25_1355;iat_vr;60.12003566298503;
3;EINWANDFREI;positiv;p;0;13;13;6;p;1;0.8290476000001945;002;ARDR97;2019_Nov_25_1355;iat_vr;60.12003566298503;
3;LAMPE;Gemacht;p;0;14;14;19;p;1;0.8636341999990691;002;ARDR97;2019_Nov_25_1355;iat_vr;60.12003566298503;
3;TIER;Natur;q;0;15;15;13;q;1;0.7325418000000354;002;ARDR97;2019_Nov_25_1355;iat_vr;60.12003566298503;
3;SCHWACH;negativ;q;0;16;16;4;q;1;0.6321625999989919;002;ARDR97;2019_Nov_25_1355;iat_vr;60.12003566298503;
3;BLUME;Natur;q;0;17;17;12;q;1;0.8263163000010536;002;ARDR97;2019_Nov_25_1355;iat_vr;60.12003566298503;
3;NEGATIV;negativ;q;0;18;18;2;q;1;0.6121381000011752;002;ARDR97;2019_Nov_25_1355;iat_vr;60.12003566298503;
3;SCHÄDLICH;negativ;q;0;19;19;3;q;1;0.6463108999996621;002;ARDR97;2019_Nov_25_1355;iat_vr;60.12003566298503;
;;;;;;;;;;;002;ARDR97;2019_Nov_25_1355;iat_vr;60.12003566298503;
4;SCHWACH;negativ;q;0;0;0;4;q;1;1.0795883999999205;002;ARDR97;2019_Nov_25_1355;iat_vr;60.12003566298503;
4;LAMPE;Gemacht;p;0;1;1;19;p;1;0.7121390999964206;002;ARDR97;2019_Nov_25_1355;iat_vr;60.12003566298503;
4;BLUME;Natur;q;0;2;2;12;q;1;0.7985220000009576;002;ARDR97;2019_Nov_25_1355;iat_vr;60.12003566298503;
4;BAUM;Natur;q;0;3;3;10;q;1;0.8818678999996337;002;ARDR97;2019_Nov_25_1355;iat_vr;60.12003566298503;
4;COMPUTER;Gemacht;p;0;4;4;18;p;1;1.1464725999976508;002;ARDR97;2019_Nov_25_1355;iat_vr;60.12003566298503;
4;SCHLIMM;negativ;q;0;5;5;0;q;1;0.8809971999980917;002;ARDR97;2019_Nov_25_1355;iat_vr;60.12003566298503;
4;SCHÄDLICH;negativ;q;0;6;6;3;q;1;0.6458053999995172;002;ARDR97;2019_Nov_25_1355;iat_vr;60.12003566298503;
4;KLEIDER;Gemacht;p;0;7;7;17;p;1;0.6650570000019798;002;ARDR97;2019_Nov_25_1355;iat_vr;60.12003566298503;
4;HERVORRAGEND;positiv;p;0;8;8;7;p;1;0.6577337000016996;002;ARDR97;2019_Nov_25_1355;iat_vr;60.12003566298503;
4;STADT;Gemacht;p;0;9;9;16;p;1;0.8823162000007869;002;ARDR97;2019_Nov_25_1355;iat_vr;60.12003566298503;
4;GUT;positiv;p;0;10;10;9;p;1;0.6497920000001614;002;ARDR97;2019_Nov_25_1355;iat_vr;60.12003566298503;
4;GEBÄUDE;Gemacht;p;0;11;11;15;p;1;0.8308376999993925;002;ARDR97;2019_Nov_25_1355;iat_vr;60.12003566298503;
4;AUSGEZEICHNET;positiv;p;0;12;12;5;p;1;0.6962487999990117;002;ARDR97;2019_Nov_25_1355;iat_vr;60.12003566298503;
4;WASSER;Natur;q;0;13;13;11;q;1;0.6927357999993546;002;ARDR97;2019_Nov_25_1355;iat_vr;60.12003566298503;
4;TIER;Natur;q;0;14;14;13;q;1;0.7986383999996178;002;ARDR97;2019_Nov_25_1355;iat_vr;60.12003566298503;
4;NEGATIV;negativ;q;0;15;15;2;q;1;0.6487653000003775;002;ARDR97;2019_Nov_25_1355;iat_vr;60.12003566298503;
4;STEIN;Natur;q;0;16;16;14;q;1;0.8473020999990695;002;ARDR97;2019_Nov_25_1355;iat_vr;60.12003566298503;
4;POSITIV;positiv;p;0;17;17;8;p;1;0.846380599999975;002;ARDR97;2019_Nov_25_1355;iat_vr;60.12003566298503;
4;EINWANDFREI;positiv;p;0;18;18;6;p;1;0.7632854000003135;002;ARDR97;2019_Nov_25_1355;iat_vr;60.12003566298503;
4;SCHLECHT;negativ;q;0;19;19;1;q;1;0.6698238000026322;002;ARDR97;2019_Nov_25_1355;iat_vr;60.12003566298503;
4;EINWANDFREI;positiv;p;1;0;20;6;p;1;0.9462213000006159;002;ARDR97;2019_Nov_25_1355;iat_vr;60.12003566298503;
4;POSITIV;positiv;p;1;1;21;8;p;1;0.9151187999996182;002;ARDR97;2019_Nov_25_1355;iat_vr;60.12003566298503;
4;BLUME;Natur;q;1;2;22;12;q;1;0.6652720999991288;002;ARDR97;2019_Nov_25_1355;iat_vr;60.12003566298503;
4;NEGATIV;negativ;q;1;3;23;2;q;1;0.6496267000002263;002;ARDR97;2019_Nov_25_1355;iat_vr;60.12003566298503;
4;GUT;positiv;p;1;4;24;9;p;1;1.1759036000003107;002;ARDR97;2019_Nov_25_1355;iat_vr;60.12003566298503;
4;STEIN;Natur;q;1;5;25;14;q;1;0.7483954000017548;002;ARDR97;2019_Nov_25_1355;iat_vr;60.12003566298503;
4;KLEIDER;Gemacht;p;1;6;26;17;p;1;0.7485989000015252;002;ARDR97;2019_Nov_25_1355;iat_vr;60.12003566298503;
4;SCHLIMM;negativ;q;1;7;27;0;q;1;0.8127456000001985;002;ARDR97;2019_Nov_25_1355;iat_vr;60.12003566298503;
4;GEBÄUDE;Gemacht;p;1;8;28;15;p;1;0.9815778000011051;002;ARDR97;2019_Nov_25_1355;iat_vr;60.12003566298503;
4;SCHLECHT;negativ;q;1;9;29;1;q;1;2.7476299999980256;002;ARDR97;2019_Nov_25_1355;iat_vr;60.12003566298503;
4;TIER;Natur;q;1;10;30;13;q;1;1.149043100002018;002;ARDR97;2019_Nov_25_1355;iat_vr;60.12003566298503;
4;HERVORRAGEND;positiv;p;1;11;31;7;p;1;0.7086215999988781;002;ARDR97;2019_Nov_25_1355;iat_vr;60.12003566298503;
4;AUSGEZEICHNET;positiv;p;1;12;32;5;p;1;0.7279096999991452;002;ARDR97;2019_Nov_25_1355;iat_vr;60.12003566298503;
4;LAMPE;Gemacht;p;1;13;33;19;p;1;0.709293300002173;002;ARDR97;2019_Nov_25_1355;iat_vr;60.12003566298503;
4;STADT;Gemacht;p;1;14;34;16;p;1;0.8656811000000744;002;ARDR97;2019_Nov_25_1355;iat_vr;60.12003566298503;
4;SCHÄDLICH;negativ;q;1;15;35;3;q;1;0.780166200001986;002;ARDR97;2019_Nov_25_1355;iat_vr;60.12003566298503;
4;SCHWACH;negativ;q;1;16;36;4;q;1;1.0304421999971964;002;ARDR97;2019_Nov_25_1355;iat_vr;60.12003566298503;
4;BAUM;Natur;q;1;17;37;10;q;1;0.780254799999966;002;ARDR97;2019_Nov_25_1355;iat_vr;60.12003566298503;
4;COMPUTER;Gemacht;p;1;18;38;18;p;1;0.6988029000021925;002;ARDR97;2019_Nov_25_1355;iat_vr;60.12003566298503;
4;WASSER;Natur;q;1;19;39;11;q;1;0.7823734999983571;002;ARDR97;2019_Nov_25_1355;iat_vr;60.12003566298503;
;;;;;;;;;;;002;ARDR97;2019_Nov_25_1355;iat_vr;60.12003566298503;
5;STADT;Gemacht;q;0;0;0;6;q;1;1.5858874000005017;002;ARDR97;2019_Nov_25_1355;iat_vr;60.12003566298503;
5;BLUME;Natur;p;0;1;1;2;p;1;0.6648956999997608;002;ARDR97;2019_Nov_25_1355;iat_vr;60.12003566298503;
5;WASSER;Natur;p;0;2;2;1;p;1;0.7819223999977112;002;ARDR97;2019_Nov_25_1355;iat_vr;60.12003566298503;
5;BAUM;Natur;p;0;3;3;0;p;1;0.6009331999994174;002;ARDR97;2019_Nov_25_1355;iat_vr;60.12003566298503;
5;KLEIDER;Gemacht;q;0;4;4;7;q;1;0.7467227000015555;002;ARDR97;2019_Nov_25_1355;iat_vr;60.12003566298503;
5;STEIN;Natur;p;0;5;5;4;p;1;0.8482524999999441;002;ARDR97;2019_Nov_25_1355;iat_vr;60.12003566298503;
5;LAMPE;Gemacht;q;0;6;6;9;q;1;0.7987496999994619;002;ARDR97;2019_Nov_25_1355;iat_vr;60.12003566298503;
5;TIER;Natur;p;0;7;7;3;p;1;0.8157231000004685;002;ARDR97;2019_Nov_25_1355;iat_vr;60.12003566298503;
5;GEBÄUDE;Gemacht;q;0;8;8;5;q;1;0.6817621999980474;002;ARDR97;2019_Nov_25_1355;iat_vr;60.12003566298503;
5;COMPUTER;Gemacht;q;0;9;9;8;q;1;0.8653097999995225;002;ARDR97;2019_Nov_25_1355;iat_vr;60.12003566298503;
5;GEBÄUDE;Gemacht;q;1;0;10;5;q;1;0.8150787999984459;002;ARDR97;2019_Nov_25_1355;iat_vr;60.12003566298503;
5;BAUM;Natur;p;1;1;11;0;p;1;1.0631801999988966;002;ARDR97;2019_Nov_25_1355;iat_vr;60.12003566298503;
5;BLUME;Natur;p;1;2;12;2;p;1;0.5145109000004595;002;ARDR97;2019_Nov_25_1355;iat_vr;60.12003566298503;
5;STADT;Gemacht;q;1;3;13;6;q;1;0.6985061000013957;002;ARDR97;2019_Nov_25_1355;iat_vr;60.12003566298503;
5;KLEIDER;Gemacht;q;1;4;14;7;q;1;0.7140341000012995;002;ARDR97;2019_Nov_25_1355;iat_vr;60.12003566298503;
5;WASSER;Natur;p;1;5;15;1;p;1;0.7304111000012199;002;ARDR97;2019_Nov_25_1355;iat_vr;60.12003566298503;
5;STEIN;Natur;p;1;6;16;4;p;1;1.1108696999981476;002;ARDR97;2019_Nov_25_1355;iat_vr;60.12003566298503;
5;COMPUTER;Gemacht;q;1;7;17;8;q;1;0.7478023999974539;002;ARDR97;2019_Nov_25_1355;iat_vr;60.12003566298503;
5;TIER;Natur;p;1;8;18;3;p;1;0.5816563999978825;002;ARDR97;2019_Nov_25_1355;iat_vr;60.12003566298503;
5;LAMPE;Gemacht;q;1;9;19;9;q;1;0.6809548999990511;002;ARDR97;2019_Nov_25_1355;iat_vr;60.12003566298503;
;;;;;;;;;;;002;ARDR97;2019_Nov_25_1355;iat_vr;60.12003566298503;
6;LAMPE;Gemacht;q;0;0;0;9;q;1;1.798768000000564;002;ARDR97;2019_Nov_25_1355;iat_vr;60.12003566298503;
6;BAUM;Natur;p;0;1;1;0;p;1;1.3138274000011734;002;ARDR97;2019_Nov_25_1355;iat_vr;60.12003566298503;
6;KLEIDER;Gemacht;q;0;2;2;7;q;1;1.380482699998538;002;ARDR97;2019_Nov_25_1355;iat_vr;60.12003566298503;
6;HERVORRAGEND;positiv;p;0;3;3;17;p;1;0.9110731000000669;002;ARDR97;2019_Nov_25_1355;iat_vr;60.12003566298503;
6;WASSER;Natur;p;0;4;4;1;p;1;0.7490298000011535;002;ARDR97;2019_Nov_25_1355;iat_vr;60.12003566298503;
6;COMPUTER;Gemacht;q;0;5;5;8;q;1;0.8803444000004674;002;ARDR97;2019_Nov_25_1355;iat_vr;60.12003566298503;
6;POSITIV;positiv;p;0;6;6;18;p;1;0.7660867000013241;002;ARDR97;2019_Nov_25_1355;iat_vr;60.12003566298503;
6;AUSGEZEICHNET;positiv;p;0;7;7;15;p;1;0.8466769000006025;002;ARDR97;2019_Nov_25_1355;iat_vr;60.12003566298503;
6;BLUME;Natur;p;0;8;8;2;p;1;0.695811000001413;002;ARDR97;2019_Nov_25_1355;iat_vr;60.12003566298503;
6;TIER;Natur;p;0;9;9;3;p;1;0.8145524999999907;002;ARDR97;2019_Nov_25_1355;iat_vr;60.12003566298503;
6;GEBÄUDE;Gemacht;q;0;10;10;5;q;1;0.6312638999988849;002;ARDR97;2019_Nov_25_1355;iat_vr;60.12003566298503;
6;NEGATIV;negativ;q;0;11;11;12;q;1;1.2317535000001953;002;ARDR97;2019_Nov_25_1355;iat_vr;60.12003566298503;
6;SCHLIMM;negativ;q;0;12;12;10;q;1;0.7640700999982073;002;ARDR97;2019_Nov_25_1355;iat_vr;60.12003566298503;
6;SCHÄDLICH;negativ;q;0;13;13;13;q;1;1.2262207999992825;002;ARDR97;2019_Nov_25_1355;iat_vr;60.12003566298503;
6;GUT;positiv;p;0;14;14;19;p;1;0.6989825000018755;002;ARDR97;2019_Nov_25_1355;iat_vr;60.12003566298503;
6;STADT;Gemacht;q;0;15;15;6;q;1;1.4981573000004573;002;ARDR97;2019_Nov_25_1355;iat_vr;60.12003566298503;
6;STEIN;Natur;p;0;16;16;4;p;1;0.9821240000019316;002;ARDR97;2019_Nov_25_1355;iat_vr;60.12003566298503;
6;EINWANDFREI;positiv;p;0;17;17;16;p;1;1.062029499997152;002;ARDR97;2019_Nov_25_1355;iat_vr;60.12003566298503;
6;SCHWACH;negativ;q;0;18;18;14;q;1;0.882044499998301;002;ARDR97;2019_Nov_25_1355;iat_vr;60.12003566298503;
6;SCHLECHT;negativ;q;0;19;19;11;q;1;0.714445199999318;002;ARDR97;2019_Nov_25_1355;iat_vr;60.12003566298503;
;;;;;;;;;;;002;ARDR97;2019_Nov_25_1355;iat_vr;60.12003566298503;
7;LAMPE;Gemacht;q;0;0;0;9;q;1;1.0324369000009028;002;ARDR97;2019_Nov_25_1355;iat_vr;60.12003566298503;
7;SCHÄDLICH;negativ;q;0;1;1;13;q;1;0.6614477000002807;002;ARDR97;2019_Nov_25_1355;iat_vr;60.12003566298503;
7;BAUM;Natur;p;0;2;2;0;p;1;0.6985855999992054;002;ARDR97;2019_Nov_25_1355;iat_vr;60.12003566298503;
7;COMPUTER;Gemacht;q;0;3;3;8;q;1;0.9806910999977845;002;ARDR97;2019_Nov_25_1355;iat_vr;60.12003566298503;
7;POSITIV;positiv;p;0;4;4;18;p;1;1.4159082999976818;002;ARDR97;2019_Nov_25_1355;iat_vr;60.12003566298503;
7;SCHLIMM;negativ;q;0;5;5;10;q;1;0.7665734000001976;002;ARDR97;2019_Nov_25_1355;iat_vr;60.12003566298503;
7;EINWANDFREI;positiv;p;0;6;6;16;p;1;0.9433296000024711;002;ARDR97;2019_Nov_25_1355;iat_vr;60.12003566298503;
7;AUSGEZEICHNET;positiv;p;0;7;7;15;p;1;0.5741398999998637;002;ARDR97;2019_Nov_25_1355;iat_vr;60.12003566298503;
7;TIER;Natur;p;0;8;8;3;p;1;0.6650298999993538;002;ARDR97;2019_Nov_25_1355;iat_vr;60.12003566298503;
7;KLEIDER;Gemacht;q;0;9;9;7;q;1;0.9481933999995817;002;ARDR97;2019_Nov_25_1355;iat_vr;60.12003566298503;
7;STADT;Gemacht;q;0;10;10;6;q;1;0.8136876999997185;002;ARDR97;2019_Nov_25_1355;iat_vr;60.12003566298503;
7;GUT;positiv;p;0;11;11;19;p;1;0.8340594000001147;002;ARDR97;2019_Nov_25_1355;iat_vr;60.12003566298503;
7;SCHLECHT;negativ;q;0;12;12;11;q;1;0.7464351999988139;002;ARDR97;2019_Nov_25_1355;iat_vr;60.12003566298503;
7;STEIN;Natur;p;0;13;13;4;p;1;0.940381399999751;002;ARDR97;2019_Nov_25_1355;iat_vr;60.12003566298503;
7;SCHWACH;negativ;q;0;14;14;14;q;1;0.6918052000000898;002;ARDR97;2019_Nov_25_1355;iat_vr;60.12003566298503;
7;HERVORRAGEND;positiv;p;0;15;15;17;p;1;0.929443100001663;002;ARDR97;2019_Nov_25_1355;iat_vr;60.12003566298503;
7;NEGATIV;negativ;q;0;16;16;12;q;1;0.6815376999984437;002;ARDR97;2019_Nov_25_1355;iat_vr;60.12003566298503;
7;BLUME;Natur;p;0;17;17;2;p;1;0.6323331999992661;002;ARDR97;2019_Nov_25_1355;iat_vr;60.12003566298503;
7;GEBÄUDE;Gemacht;q;0;18;18;5;q;1;0.7475427000026684;002;ARDR97;2019_Nov_25_1355;iat_vr;60.12003566298503;
7;WASSER;Natur;p;0;19;19;1;p;1;1.9791781999992963;002;ARDR97;2019_Nov_25_1355;iat_vr;60.12003566298503;
7;WASSER;Natur;p;1;0;20;1;p;1;0.6174967000006291;002;ARDR97;2019_Nov_25_1355;iat_vr;60.12003566298503;
7;COMPUTER;Gemacht;q;1;1;21;8;q;1;0.760993600000802;002;ARDR97;2019_Nov_25_1355;iat_vr;60.12003566298503;
7;SCHLIMM;negativ;q;1;2;22;10;q;1;2.746907500000816;002;ARDR97;2019_Nov_25_1355;iat_vr;60.12003566298503;
7;POSITIV;positiv;p;1;3;23;18;p;1;0.7482836999988649;002;ARDR97;2019_Nov_25_1355;iat_vr;60.12003566298503;
7;GEBÄUDE;Gemacht;q;1;4;24;5;q;1;0.8655582999999751;002;ARDR97;2019_Nov_25_1355;iat_vr;60.12003566298503;
7;TIER;Natur;p;1;5;25;3;p;1;1.082394299999578;002;ARDR97;2019_Nov_25_1355;iat_vr;60.12003566298503;
7;EINWANDFREI;positiv;p;1;6;26;16;p;1;1.8688505999998597;002;ARDR97;2019_Nov_25_1355;iat_vr;60.12003566298503;
7;AUSGEZEICHNET;positiv;p;1;7;27;15;p;1;0.6589848000003258;002;ARDR97;2019_Nov_25_1355;iat_vr;60.12003566298503;
7;STADT;Gemacht;q;1;8;28;6;q;1;2.5355335000022023;002;ARDR97;2019_Nov_25_1355;iat_vr;60.12003566298503;
7;NEGATIV;negativ;q;1;9;29;12;q;1;2.014153600001009;002;ARDR97;2019_Nov_25_1355;iat_vr;60.12003566298503;
7;SCHLECHT;negativ;q;1;10;30;11;q;1;0.8800571000028867;002;ARDR97;2019_Nov_25_1355;iat_vr;60.12003566298503;
7;GUT;positiv;p;1;11;31;19;p;1;1.7323053000000073;002;ARDR97;2019_Nov_25_1355;iat_vr;60.12003566298503;
7;BAUM;Natur;p;1;12;32;0;p;1;0.5352848999973503;002;ARDR97;2019_Nov_25_1355;iat_vr;60.12003566298503;
7;LAMPE;Gemacht;q;1;13;33;9;q;1;0.68154240000149;002;ARDR97;2019_Nov_25_1355;iat_vr;60.12003566298503;
7;STEIN;Natur;p;1;14;34;4;p;1;0.7312148999990313;002;ARDR97;2019_Nov_25_1355;iat_vr;60.12003566298503;
7;KLEIDER;Gemacht;q;1;15;35;7;q;1;1.0803511000012804;002;ARDR97;2019_Nov_25_1355;iat_vr;60.12003566298503;
7;SCHÄDLICH;negativ;q;1;16;36;13;q;1;1.9366321999987122;002;ARDR97;2019_Nov_25_1355;iat_vr;60.12003566298503;
7;BLUME;Natur;p;1;17;37;2;p;1;0.6480389999996987;002;ARDR97;2019_Nov_25_1355;iat_vr;60.12003566298503;
7;HERVORRAGEND;positiv;p;1;18;38;17;p;1;0.5795751000005112;002;ARDR97;2019_Nov_25_1355;iat_vr;60.12003566298503;
7;SCHWACH;negativ;q;1;19;39;14;q;1;0.6444469000016397;002;ARDR97;2019_Nov_25_1355;iat_vr;60.12003566298503;
;;;;;;;;;;;002;ARDR97;2019_Nov_25_1355;iat_vr;60.12003566298503;
