Block;Word;Category;CorrResp;trials.thisRepN;trials.thisTrialN;trials.thisN;trials.thisIndex;key_resp_2.keys;key_resp_2.corr;key_resp_2.rt;session;participant;date;expName;frameRate;
1;BLUME;Natur;q;0;0;0;2;q;1;1.8979856000000837;002;ARDS53;2019_Nov_25_0946;iat_vr;59.9108047937921;
1;COMPUTER;Gemacht;p;0;1;1;8;p;1;0.8835239999998521;002;ARDS53;2019_Nov_25_0946;iat_vr;59.9108047937921;
1;BAUM;Natur;q;0;2;2;0;q;1;0.6957354000001033;002;ARDS53;2019_Nov_25_0946;iat_vr;59.9108047937921;
1;STEIN;Natur;q;0;3;3;4;q;1;0.8151115999999092;002;ARDS53;2019_Nov_25_0946;iat_vr;59.9108047937921;
1;WASSER;Natur;q;0;4;4;1;q;1;0.6155729000001884;002;ARDS53;2019_Nov_25_0946;iat_vr;59.9108047937921;
1;KLEIDER;Gemacht;p;0;5;5;7;p;1;0.7497736000000259;002;ARDS53;2019_Nov_25_0946;iat_vr;59.9108047937921;
1;TIER;Natur;q;0;6;6;3;q;1;0.750499199999922;002;ARDS53;2019_Nov_25_0946;iat_vr;59.9108047937921;
1;GEBÄUDE;Gemacht;p;0;7;7;5;p;1;1.0837013999998817;002;ARDS53;2019_Nov_25_0946;iat_vr;59.9108047937921;
1;LAMPE;Gemacht;p;0;8;8;9;p;1;0.8180545000000166;002;ARDS53;2019_Nov_25_0946;iat_vr;59.9108047937921;
1;STADT;Gemacht;p;0;9;9;6;p;1;0.886040100000173;002;ARDS53;2019_Nov_25_0946;iat_vr;59.9108047937921;
1;STADT;Gemacht;p;1;0;10;6;p;1;0.7505137000002833;002;ARDS53;2019_Nov_25_0946;iat_vr;59.9108047937921;
1;BAUM;Natur;q;1;1;11;0;q;1;0.8335627999999815;002;ARDS53;2019_Nov_25_0946;iat_vr;59.9108047937921;
1;COMPUTER;Gemacht;p;1;2;12;8;p;1;0.9320800000000418;002;ARDS53;2019_Nov_25_0946;iat_vr;59.9108047937921;
1;STEIN;Natur;q;1;3;13;4;q;1;1.8129062999996677;002;ARDS53;2019_Nov_25_0946;iat_vr;59.9108047937921;
1;TIER;Natur;q;1;4;14;3;q;1;0.834855300000072;002;ARDS53;2019_Nov_25_0946;iat_vr;59.9108047937921;
1;GEBÄUDE;Gemacht;p;1;5;15;5;p;1;0.7143264999999701;002;ARDS53;2019_Nov_25_0946;iat_vr;59.9108047937921;
1;BLUME;Natur;q;1;6;16;2;q;1;0.6843597000001864;002;ARDS53;2019_Nov_25_0946;iat_vr;59.9108047937921;
1;LAMPE;Gemacht;p;1;7;17;9;p;1;0.91576939999959;002;ARDS53;2019_Nov_25_0946;iat_vr;59.9108047937921;
1;WASSER;Natur;q;1;8;18;1;q;1;0.9684941000000435;002;ARDS53;2019_Nov_25_0946;iat_vr;59.9108047937921;
1;KLEIDER;Gemacht;p;1;9;19;7;p;1;0.8157102999998642;002;ARDS53;2019_Nov_25_0946;iat_vr;59.9108047937921;
;;;;;;;;;;;002;ARDS53;2019_Nov_25_0946;iat_vr;59.9108047937921;
2;GUT;positiv;p;0;0;0;9;q;0;0.9816893000001983;002;ARDS53;2019_Nov_25_0946;iat_vr;59.9108047937921;
2;SCHLECHT;negativ;q;0;1;1;1;q;1;0.9025858999998491;002;ARDS53;2019_Nov_25_0946;iat_vr;59.9108047937921;
2;HERVORRAGEND;positiv;p;0;2;2;7;p;1;0.744882399999824;002;ARDS53;2019_Nov_25_0946;iat_vr;59.9108047937921;
2;SCHLIMM;negativ;q;0;3;3;0;q;1;1.5637117999999646;002;ARDS53;2019_Nov_25_0946;iat_vr;59.9108047937921;
2;NEGATIV;negativ;q;0;4;4;2;q;1;0.7838521999997283;002;ARDS53;2019_Nov_25_0946;iat_vr;59.9108047937921;
2;SCHWACH;negativ;q;0;5;5;4;q;1;0.9800006000000394;002;ARDS53;2019_Nov_25_0946;iat_vr;59.9108047937921;
2;SCHÄDLICH;negativ;q;0;6;6;3;q;1;0.784867899999881;002;ARDS53;2019_Nov_25_0946;iat_vr;59.9108047937921;
2;AUSGEZEICHNET;positiv;p;0;7;7;5;p;1;0.691624800000227;002;ARDS53;2019_Nov_25_0946;iat_vr;59.9108047937921;
2;EINWANDFREI;positiv;p;0;8;8;6;q;0;2.584973799999716;002;ARDS53;2019_Nov_25_0946;iat_vr;59.9108047937921;
2;POSITIV;positiv;p;0;9;9;8;p;1;0.765472999999929;002;ARDS53;2019_Nov_25_0946;iat_vr;59.9108047937921;
2;EINWANDFREI;positiv;p;1;0;10;6;p;1;0.7971135999996477;002;ARDS53;2019_Nov_25_0946;iat_vr;59.9108047937921;
2;SCHLIMM;negativ;q;1;1;11;0;q;1;0.861087299999781;002;ARDS53;2019_Nov_25_0946;iat_vr;59.9108047937921;
2;GUT;positiv;p;1;2;12;9;p;1;0.8161614000000554;002;ARDS53;2019_Nov_25_0946;iat_vr;59.9108047937921;
2;NEGATIV;negativ;q;1;3;13;2;q;1;0.7787524000000303;002;ARDS53;2019_Nov_25_0946;iat_vr;59.9108047937921;
2;SCHWACH;negativ;q;1;4;14;4;q;1;0.9809792000000925;002;ARDS53;2019_Nov_25_0946;iat_vr;59.9108047937921;
2;POSITIV;positiv;p;1;5;15;8;p;1;0.8640629999999874;002;ARDS53;2019_Nov_25_0946;iat_vr;59.9108047937921;
2;HERVORRAGEND;positiv;p;1;6;16;7;p;1;0.7822669999995924;002;ARDS53;2019_Nov_25_0946;iat_vr;59.9108047937921;
2;AUSGEZEICHNET;positiv;p;1;7;17;5;p;1;1.5015349999998762;002;ARDS53;2019_Nov_25_0946;iat_vr;59.9108047937921;
2;SCHÄDLICH;negativ;q;1;8;18;3;q;1;1.0333270999999513;002;ARDS53;2019_Nov_25_0946;iat_vr;59.9108047937921;
2;SCHLECHT;negativ;q;1;9;19;1;q;1;0.631351199999699;002;ARDS53;2019_Nov_25_0946;iat_vr;59.9108047937921;
;;;;;;;;;;;002;ARDS53;2019_Nov_25_0946;iat_vr;59.9108047937921;
3;BAUM;Natur;q;0;0;0;10;q;1;0.8788565000004382;002;ARDS53;2019_Nov_25_0946;iat_vr;59.9108047937921;
3;POSITIV;positiv;p;0;1;1;8;p;1;0.7798371999997471;002;ARDS53;2019_Nov_25_0946;iat_vr;59.9108047937921;
3;WASSER;Natur;q;0;2;2;11;q;1;1.2153418999996575;002;ARDS53;2019_Nov_25_0946;iat_vr;59.9108047937921;
3;SCHÄDLICH;negativ;q;0;3;3;3;q;1;2.12910920000013;002;ARDS53;2019_Nov_25_0946;iat_vr;59.9108047937921;
3;LAMPE;Gemacht;p;0;4;4;19;p;1;3.431516100000408;002;ARDS53;2019_Nov_25_0946;iat_vr;59.9108047937921;
3;TIER;Natur;q;0;5;5;13;q;1;0.9821706999991875;002;ARDS53;2019_Nov_25_0946;iat_vr;59.9108047937921;
3;NEGATIV;negativ;q;0;6;6;2;q;1;2.4522483000000648;002;ARDS53;2019_Nov_25_0946;iat_vr;59.9108047937921;
3;BLUME;Natur;q;0;7;7;12;q;1;0.8807285000002594;002;ARDS53;2019_Nov_25_0946;iat_vr;59.9108047937921;
3;SCHWACH;negativ;q;0;8;8;4;q;1;1.9500035999999454;002;ARDS53;2019_Nov_25_0946;iat_vr;59.9108047937921;
3;STEIN;Natur;q;0;9;9;14;q;1;0.76802730000054;002;ARDS53;2019_Nov_25_0946;iat_vr;59.9108047937921;
3;SCHLIMM;negativ;q;0;10;10;0;q;1;0.7113760000002003;002;ARDS53;2019_Nov_25_0946;iat_vr;59.9108047937921;
3;SCHLECHT;negativ;q;0;11;11;1;q;1;0.7461991000000125;002;ARDS53;2019_Nov_25_0946;iat_vr;59.9108047937921;
3;GEBÄUDE;Gemacht;p;0;12;12;15;p;1;2.635779399999592;002;ARDS53;2019_Nov_25_0946;iat_vr;59.9108047937921;
3;COMPUTER;Gemacht;p;0;13;13;18;p;1;0.8117084999994404;002;ARDS53;2019_Nov_25_0946;iat_vr;59.9108047937921;
3;KLEIDER;Gemacht;p;0;14;14;17;p;1;1.1496963999998115;002;ARDS53;2019_Nov_25_0946;iat_vr;59.9108047937921;
3;HERVORRAGEND;positiv;p;0;15;15;7;p;1;1.078975299999911;002;ARDS53;2019_Nov_25_0946;iat_vr;59.9108047937921;
3;EINWANDFREI;positiv;p;0;16;16;6;p;1;0.8818988000002719;002;ARDS53;2019_Nov_25_0946;iat_vr;59.9108047937921;
3;GUT;positiv;p;0;17;17;9;p;1;0.8478405000005296;002;ARDS53;2019_Nov_25_0946;iat_vr;59.9108047937921;
3;STADT;Gemacht;p;0;18;18;16;p;1;0.9653034000002663;002;ARDS53;2019_Nov_25_0946;iat_vr;59.9108047937921;
3;AUSGEZEICHNET;positiv;p;0;19;19;5;p;1;0.8473887999998624;002;ARDS53;2019_Nov_25_0946;iat_vr;59.9108047937921;
;;;;;;;;;;;002;ARDS53;2019_Nov_25_0946;iat_vr;59.9108047937921;
4;STEIN;Natur;q;0;0;0;14;q;1;2.038542199999938;002;ARDS53;2019_Nov_25_0946;iat_vr;59.9108047937921;
4;SCHLECHT;negativ;q;0;1;1;1;q;1;1.0149475999996866;002;ARDS53;2019_Nov_25_0946;iat_vr;59.9108047937921;
4;SCHÄDLICH;negativ;q;0;2;2;3;q;1;1.1794956000003367;002;ARDS53;2019_Nov_25_0946;iat_vr;59.9108047937921;
4;COMPUTER;Gemacht;p;0;3;3;18;p;1;0.9015844999994442;002;ARDS53;2019_Nov_25_0946;iat_vr;59.9108047937921;
4;GUT;positiv;p;0;4;4;9;p;1;2.167082599999958;002;ARDS53;2019_Nov_25_0946;iat_vr;59.9108047937921;
4;SCHLIMM;negativ;q;0;5;5;0;q;1;1.0491126999995686;002;ARDS53;2019_Nov_25_0946;iat_vr;59.9108047937921;
4;NEGATIV;negativ;q;0;6;6;2;q;1;1.1974700000000666;002;ARDS53;2019_Nov_25_0946;iat_vr;59.9108047937921;
4;AUSGEZEICHNET;positiv;p;0;7;7;5;p;1;0.8961960999995426;002;ARDS53;2019_Nov_25_0946;iat_vr;59.9108047937921;
4;TIER;Natur;q;0;8;8;13;q;1;0.8827569999994012;002;ARDS53;2019_Nov_25_0946;iat_vr;59.9108047937921;
4;LAMPE;Gemacht;p;0;9;9;19;p;1;1.016020000000026;002;ARDS53;2019_Nov_25_0946;iat_vr;59.9108047937921;
4;WASSER;Natur;q;0;10;10;11;q;1;1.2151082000000315;002;ARDS53;2019_Nov_25_0946;iat_vr;59.9108047937921;
4;BLUME;Natur;q;0;11;11;12;q;1;0.7980508999999074;002;ARDS53;2019_Nov_25_0946;iat_vr;59.9108047937921;
4;SCHWACH;negativ;q;0;12;12;4;q;1;1.927454900000157;002;ARDS53;2019_Nov_25_0946;iat_vr;59.9108047937921;
4;HERVORRAGEND;positiv;p;0;13;13;7;p;1;0.9166499000002659;002;ARDS53;2019_Nov_25_0946;iat_vr;59.9108047937921;
4;KLEIDER;Gemacht;p;0;14;14;17;p;1;1.0844073999996908;002;ARDS53;2019_Nov_25_0946;iat_vr;59.9108047937921;
4;STADT;Gemacht;p;0;15;15;16;p;1;0.8480899000005593;002;ARDS53;2019_Nov_25_0946;iat_vr;59.9108047937921;
4;EINWANDFREI;positiv;p;0;16;16;6;p;1;1.0118787000001248;002;ARDS53;2019_Nov_25_0946;iat_vr;59.9108047937921;
4;POSITIV;positiv;p;0;17;17;8;p;1;0.7980609000005643;002;ARDS53;2019_Nov_25_0946;iat_vr;59.9108047937921;
4;GEBÄUDE;Gemacht;p;0;18;18;15;p;1;1.4972848999996131;002;ARDS53;2019_Nov_25_0946;iat_vr;59.9108047937921;
4;BAUM;Natur;q;0;19;19;10;q;1;0.8858282000001054;002;ARDS53;2019_Nov_25_0946;iat_vr;59.9108047937921;
4;SCHÄDLICH;negativ;q;1;0;20;3;q;1;1.4630450999993627;002;ARDS53;2019_Nov_25_0946;iat_vr;59.9108047937921;
4;BLUME;Natur;q;1;1;21;12;q;1;0.9480696999999054;002;ARDS53;2019_Nov_25_0946;iat_vr;59.9108047937921;
4;GUT;positiv;p;1;2;22;9;p;1;2.065344300000106;002;ARDS53;2019_Nov_25_0946;iat_vr;59.9108047937921;
4;HERVORRAGEND;positiv;p;1;3;23;7;p;1;0.7923321999996915;002;ARDS53;2019_Nov_25_0946;iat_vr;59.9108047937921;
4;BAUM;Natur;q;1;4;24;10;q;1;1.5178815999997823;002;ARDS53;2019_Nov_25_0946;iat_vr;59.9108047937921;
4;STEIN;Natur;q;1;5;25;14;q;1;0.8838382000003548;002;ARDS53;2019_Nov_25_0946;iat_vr;59.9108047937921;
4;STADT;Gemacht;p;1;6;26;16;p;1;0.912879200000134;002;ARDS53;2019_Nov_25_0946;iat_vr;59.9108047937921;
4;WASSER;Natur;q;1;7;27;11;q;1;0.9696623999998337;002;ARDS53;2019_Nov_25_0946;iat_vr;59.9108047937921;
4;COMPUTER;Gemacht;p;1;8;28;18;p;1;1.028193499999361;002;ARDS53;2019_Nov_25_0946;iat_vr;59.9108047937921;
4;LAMPE;Gemacht;p;1;9;29;19;p;1;0.914094999999179;002;ARDS53;2019_Nov_25_0946;iat_vr;59.9108047937921;
4;AUSGEZEICHNET;positiv;p;1;10;30;5;p;1;0.8271995999994033;002;ARDS53;2019_Nov_25_0946;iat_vr;59.9108047937921;
4;GEBÄUDE;Gemacht;p;1;11;31;15;p;1;4.664359499999591;002;ARDS53;2019_Nov_25_0946;iat_vr;59.9108047937921;
4;SCHLIMM;negativ;q;1;12;32;0;q;1;1.1481657000003906;002;ARDS53;2019_Nov_25_0946;iat_vr;59.9108047937921;
4;TIER;Natur;q;1;13;33;13;q;1;2.2847839999994903;002;ARDS53;2019_Nov_25_0946;iat_vr;59.9108047937921;
4;POSITIV;positiv;p;1;14;34;8;p;1;0.8320527000005313;002;ARDS53;2019_Nov_25_0946;iat_vr;59.9108047937921;
4;SCHLECHT;negativ;q;1;15;35;1;q;1;0.9125876999996763;002;ARDS53;2019_Nov_25_0946;iat_vr;59.9108047937921;
4;NEGATIV;negativ;q;1;16;36;2;q;1;1.0622034999996686;002;ARDS53;2019_Nov_25_0946;iat_vr;59.9108047937921;
4;EINWANDFREI;positiv;p;1;17;37;6;p;1;0.781235999999808;002;ARDS53;2019_Nov_25_0946;iat_vr;59.9108047937921;
4;KLEIDER;Gemacht;p;1;18;38;17;p;1;0.9656985000001441;002;ARDS53;2019_Nov_25_0946;iat_vr;59.9108047937921;
4;SCHWACH;negativ;q;1;19;39;4;q;1;0.9687031000003117;002;ARDS53;2019_Nov_25_0946;iat_vr;59.9108047937921;
;;;;;;;;;;;002;ARDS53;2019_Nov_25_0946;iat_vr;59.9108047937921;
5;LAMPE;Gemacht;q;0;0;0;9;p;0;0.026894499999798427;002;ARDS53;2019_Nov_25_0946;iat_vr;59.9108047937921;
5;COMPUTER;Gemacht;q;0;1;1;8;q;1;1.966952499999934;002;ARDS53;2019_Nov_25_0946;iat_vr;59.9108047937921;
5;BAUM;Natur;p;0;2;2;0;p;1;1.0141868999999133;002;ARDS53;2019_Nov_25_0946;iat_vr;59.9108047937921;
5;GEBÄUDE;Gemacht;q;0;3;3;5;q;1;1.2160451999998259;002;ARDS53;2019_Nov_25_0946;iat_vr;59.9108047937921;
5;BLUME;Natur;p;0;4;4;2;p;1;1.099231399999553;002;ARDS53;2019_Nov_25_0946;iat_vr;59.9108047937921;
5;KLEIDER;Gemacht;q;0;5;5;7;q;1;0.8642400999997335;002;ARDS53;2019_Nov_25_0946;iat_vr;59.9108047937921;
5;WASSER;Natur;p;0;6;6;1;p;1;0.6632105999997293;002;ARDS53;2019_Nov_25_0946;iat_vr;59.9108047937921;
5;STADT;Gemacht;q;0;7;7;6;q;1;0.9680432999994082;002;ARDS53;2019_Nov_25_0946;iat_vr;59.9108047937921;
5;TIER;Natur;p;0;8;8;3;p;1;1.1153158999995867;002;ARDS53;2019_Nov_25_0946;iat_vr;59.9108047937921;
5;STEIN;Natur;p;0;9;9;4;p;1;0.9464545999999245;002;ARDS53;2019_Nov_25_0946;iat_vr;59.9108047937921;
5;WASSER;Natur;p;1;0;10;1;p;1;0.8339087000003929;002;ARDS53;2019_Nov_25_0946;iat_vr;59.9108047937921;
5;KLEIDER;Gemacht;q;1;1;11;7;q;1;0.8834259999994174;002;ARDS53;2019_Nov_25_0946;iat_vr;59.9108047937921;
5;TIER;Natur;p;1;2;12;3;p;1;1.0140171000002738;002;ARDS53;2019_Nov_25_0946;iat_vr;59.9108047937921;
5;STEIN;Natur;p;1;3;13;4;p;1;0.7999062999997477;002;ARDS53;2019_Nov_25_0946;iat_vr;59.9108047937921;
5;LAMPE;Gemacht;q;1;4;14;9;q;1;1.3164993999998842;002;ARDS53;2019_Nov_25_0946;iat_vr;59.9108047937921;
5;COMPUTER;Gemacht;q;1;5;15;8;q;1;0.7810582000001887;002;ARDS53;2019_Nov_25_0946;iat_vr;59.9108047937921;
5;STADT;Gemacht;q;1;6;16;6;q;1;1.0144952999999077;002;ARDS53;2019_Nov_25_0946;iat_vr;59.9108047937921;
5;BAUM;Natur;p;1;7;17;0;p;1;0.8806436000004396;002;ARDS53;2019_Nov_25_0946;iat_vr;59.9108047937921;
5;GEBÄUDE;Gemacht;q;1;8;18;5;q;1;1.4501123000000007;002;ARDS53;2019_Nov_25_0946;iat_vr;59.9108047937921;
5;BLUME;Natur;p;1;9;19;2;p;1;1.1806288000007044;002;ARDS53;2019_Nov_25_0946;iat_vr;59.9108047937921;
;;;;;;;;;;;002;ARDS53;2019_Nov_25_0946;iat_vr;59.9108047937921;
6;POSITIV;positiv;p;0;0;0;18;p;1;1.18007149999994;002;ARDS53;2019_Nov_25_0946;iat_vr;59.9108047937921;
6;STADT;Gemacht;q;0;1;1;6;p;0;1.597873300000174;002;ARDS53;2019_Nov_25_0946;iat_vr;59.9108047937921;
6;KLEIDER;Gemacht;q;0;2;2;7;p;0;0.11671739999928832;002;ARDS53;2019_Nov_25_0946;iat_vr;59.9108047937921;
6;SCHÄDLICH;negativ;q;0;3;3;13;q;1;6.894574599999942;002;ARDS53;2019_Nov_25_0946;iat_vr;59.9108047937921;
6;WASSER;Natur;p;0;4;4;1;q;0;1.946825600000011;002;ARDS53;2019_Nov_25_0946;iat_vr;59.9108047937921;
6;GEBÄUDE;Gemacht;q;0;5;5;5;p;0;5.983222599999863;002;ARDS53;2019_Nov_25_0946;iat_vr;59.9108047937921;
6;SCHLECHT;negativ;q;0;6;6;11;q;1;1.0964006999993217;002;ARDS53;2019_Nov_25_0946;iat_vr;59.9108047937921;
6;BLUME;Natur;p;0;7;7;2;q;0;2.135059000000183;002;ARDS53;2019_Nov_25_0946;iat_vr;59.9108047937921;
6;SCHWACH;negativ;q;0;8;8;14;p;0;2.5018393000000287;002;ARDS53;2019_Nov_25_0946;iat_vr;59.9108047937921;
6;AUSGEZEICHNET;positiv;p;0;9;9;15;q;0;2.0764318999999887;002;ARDS53;2019_Nov_25_0946;iat_vr;59.9108047937921;
6;LAMPE;Gemacht;q;0;10;10;9;p;0;0.8856100999992123;002;ARDS53;2019_Nov_25_0946;iat_vr;59.9108047937921;
6;STEIN;Natur;p;0;11;11;4;p;1;1.3311008999999103;002;ARDS53;2019_Nov_25_0946;iat_vr;59.9108047937921;
6;EINWANDFREI;positiv;p;0;12;12;16;p;1;1.6821510999998281;002;ARDS53;2019_Nov_25_0946;iat_vr;59.9108047937921;
6;GUT;positiv;p;0;13;13;19;p;1;1.0654443000003084;002;ARDS53;2019_Nov_25_0946;iat_vr;59.9108047937921;
6;SCHLIMM;negativ;q;0;14;14;10;q;1;1.2312260999997306;002;ARDS53;2019_Nov_25_0946;iat_vr;59.9108047937921;
6;COMPUTER;Gemacht;q;0;15;15;8;q;1;1.2781888999998046;002;ARDS53;2019_Nov_25_0946;iat_vr;59.9108047937921;
6;TIER;Natur;p;0;16;16;3;p;1;1.0165331999996852;002;ARDS53;2019_Nov_25_0946;iat_vr;59.9108047937921;
6;HERVORRAGEND;positiv;p;0;17;17;17;p;1;0.915368099999796;002;ARDS53;2019_Nov_25_0946;iat_vr;59.9108047937921;
6;NEGATIV;negativ;q;0;18;18;12;q;1;0.7981449999997494;002;ARDS53;2019_Nov_25_0946;iat_vr;59.9108047937921;
6;BAUM;Natur;p;0;19;19;0;q;0;0.8634519999995973;002;ARDS53;2019_Nov_25_0946;iat_vr;59.9108047937921;
;;;;;;;;;;;002;ARDS53;2019_Nov_25_0946;iat_vr;59.9108047937921;
7;SCHLIMM;negativ;q;0;0;0;10;p;0;2.1474666999993133;002;ARDS53;2019_Nov_25_0946;iat_vr;59.9108047937921;
7;GUT;positiv;p;0;1;1;19;p;1;1.4636813000006441;002;ARDS53;2019_Nov_25_0946;iat_vr;59.9108047937921;
7;BLUME;Natur;p;0;2;2;2;p;1;2.015977000000021;002;ARDS53;2019_Nov_25_0946;iat_vr;59.9108047937921;
7;GEBÄUDE;Gemacht;q;0;3;3;5;q;1;1.0623912000000928;002;ARDS53;2019_Nov_25_0946;iat_vr;59.9108047937921;
7;WASSER;Natur;p;0;4;4;1;p;1;1.1523709000002782;002;ARDS53;2019_Nov_25_0946;iat_vr;59.9108047937921;
7;COMPUTER;Gemacht;q;0;5;5;8;q;1;0.7777386999996452;002;ARDS53;2019_Nov_25_0946;iat_vr;59.9108047937921;
7;EINWANDFREI;positiv;p;0;6;6;16;p;1;1.1273941999997987;002;ARDS53;2019_Nov_25_0946;iat_vr;59.9108047937921;
7;KLEIDER;Gemacht;q;0;7;7;7;q;1;1.0453569000001153;002;ARDS53;2019_Nov_25_0946;iat_vr;59.9108047937921;
7;POSITIV;positiv;p;0;8;8;18;p;1;0.7972601999999824;002;ARDS53;2019_Nov_25_0946;iat_vr;59.9108047937921;
7;AUSGEZEICHNET;positiv;p;0;9;9;15;p;1;1.4834909000001062;002;ARDS53;2019_Nov_25_0946;iat_vr;59.9108047937921;
7;LAMPE;Gemacht;q;0;10;10;9;q;1;0.7682896999995137;002;ARDS53;2019_Nov_25_0946;iat_vr;59.9108047937921;
7;HERVORRAGEND;positiv;p;0;11;11;17;p;1;2.3313344999996843;002;ARDS53;2019_Nov_25_0946;iat_vr;59.9108047937921;
7;TIER;Natur;p;0;12;12;3;q;0;0.8177552000006472;002;ARDS53;2019_Nov_25_0946;iat_vr;59.9108047937921;
7;STADT;Gemacht;q;0;13;13;6;q;1;1.1168795000003229;002;ARDS53;2019_Nov_25_0946;iat_vr;59.9108047937921;
7;SCHÄDLICH;negativ;q;0;14;14;13;p;0;1.9029875000005632;002;ARDS53;2019_Nov_25_0946;iat_vr;59.9108047937921;
7;BAUM;Natur;p;0;15;15;0;p;1;2.051164399999834;002;ARDS53;2019_Nov_25_0946;iat_vr;59.9108047937921;
7;NEGATIV;negativ;q;0;16;16;12;q;1;1.0642969999998968;002;ARDS53;2019_Nov_25_0946;iat_vr;59.9108047937921;
7;SCHWACH;negativ;q;0;17;17;14;q;1;3.43090839999968;002;ARDS53;2019_Nov_25_0946;iat_vr;59.9108047937921;
7;SCHLECHT;negativ;q;0;18;18;11;q;1;0.8501091999996788;002;ARDS53;2019_Nov_25_0946;iat_vr;59.9108047937921;
7;STEIN;Natur;p;0;19;19;4;q;0;2.200467700000445;002;ARDS53;2019_Nov_25_0946;iat_vr;59.9108047937921;
7;GUT;positiv;p;1;0;20;19;p;1;1.1338381999994454;002;ARDS53;2019_Nov_25_0946;iat_vr;59.9108047937921;
7;STEIN;Natur;p;1;1;21;4;p;1;0.6000788000001194;002;ARDS53;2019_Nov_25_0946;iat_vr;59.9108047937921;
7;BLUME;Natur;p;1;2;22;2;p;1;0.7826564000006329;002;ARDS53;2019_Nov_25_0946;iat_vr;59.9108047937921;
7;COMPUTER;Gemacht;q;1;3;23;8;q;1;0.8142795000003389;002;ARDS53;2019_Nov_25_0946;iat_vr;59.9108047937921;
7;AUSGEZEICHNET;positiv;p;1;4;24;15;p;1;0.8505031000004237;002;ARDS53;2019_Nov_25_0946;iat_vr;59.9108047937921;
7;NEGATIV;negativ;q;1;5;25;12;q;1;1.7964022999994995;002;ARDS53;2019_Nov_25_0946;iat_vr;59.9108047937921;
7;STADT;Gemacht;q;1;6;26;6;q;1;1.8168846000007761;002;ARDS53;2019_Nov_25_0946;iat_vr;59.9108047937921;
7;POSITIV;positiv;p;1;7;27;18;p;1;1.7794593999997232;002;ARDS53;2019_Nov_25_0946;iat_vr;59.9108047937921;
7;SCHLIMM;negativ;q;1;8;28;10;q;1;0.8624557000002824;002;ARDS53;2019_Nov_25_0946;iat_vr;59.9108047937921;
7;LAMPE;Gemacht;q;1;9;29;9;q;1;0.9305033999999068;002;ARDS53;2019_Nov_25_0946;iat_vr;59.9108047937921;
7;SCHÄDLICH;negativ;q;1;10;30;13;q;1;0.9653448999997636;002;ARDS53;2019_Nov_25_0946;iat_vr;59.9108047937921;
7;HERVORRAGEND;positiv;p;1;11;31;17;p;1;2.3772593000003326;002;ARDS53;2019_Nov_25_0946;iat_vr;59.9108047937921;
7;EINWANDFREI;positiv;p;1;12;32;16;p;1;0.6822698000005403;002;ARDS53;2019_Nov_25_0946;iat_vr;59.9108047937921;
7;SCHWACH;negativ;q;1;13;33;14;q;1;0.8169232000000193;002;ARDS53;2019_Nov_25_0946;iat_vr;59.9108047937921;
7;WASSER;Natur;p;1;14;34;1;q;0;0.8150346000002173;002;ARDS53;2019_Nov_25_0946;iat_vr;59.9108047937921;
7;BAUM;Natur;p;1;15;35;0;p;1;1.0518726000000242;002;ARDS53;2019_Nov_25_0946;iat_vr;59.9108047937921;
7;GEBÄUDE;Gemacht;q;1;16;36;5;q;1;3.1113820999999007;002;ARDS53;2019_Nov_25_0946;iat_vr;59.9108047937921;
7;SCHLECHT;negativ;q;1;17;37;11;q;1;1.03109189999941;002;ARDS53;2019_Nov_25_0946;iat_vr;59.9108047937921;
7;KLEIDER;Gemacht;q;1;18;38;7;q;1;0.7467862999992576;002;ARDS53;2019_Nov_25_0946;iat_vr;59.9108047937921;
7;TIER;Natur;p;1;19;39;3;p;1;0.9173123999999007;002;ARDS53;2019_Nov_25_0946;iat_vr;59.9108047937921;
;;;;;;;;;;;002;ARDS53;2019_Nov_25_0946;iat_vr;59.9108047937921;
