Block;Word;Category;CorrResp;trials.thisRepN;trials.thisTrialN;trials.thisN;trials.thisIndex;key_resp_2.keys;key_resp_2.corr;key_resp_2.rt;session;participant;date;expName;frameRate;
1;TIER;Natur;q;0;0;0;3;q;1;1.0433589000022039;002;ARGZ94;2019_Dec_16_1425;iat_vr;60.081241830335856;
1;BLUME;Natur;q;0;1;1;2;q;1;0.5202585000079125;002;ARGZ94;2019_Dec_16_1425;iat_vr;60.081241830335856;
1;STEIN;Natur;q;0;2;2;4;q;1;0.5563313000602648;002;ARGZ94;2019_Dec_16_1425;iat_vr;60.081241830335856;
1;COMPUTER;Gemacht;p;0;3;3;8;p;1;0.6178071000613272;002;ARGZ94;2019_Dec_16_1425;iat_vr;60.081241830335856;
1;GEBÄUDE;Gemacht;p;0;4;4;5;p;1;0.6197354999603704;002;ARGZ94;2019_Dec_16_1425;iat_vr;60.081241830335856;
1;LAMPE;Gemacht;p;0;5;5;9;p;1;0.49543330003507435;002;ARGZ94;2019_Dec_16_1425;iat_vr;60.081241830335856;
1;KLEIDER;Gemacht;p;0;6;6;7;p;1;0.5410357000073418;002;ARGZ94;2019_Dec_16_1425;iat_vr;60.081241830335856;
1;BAUM;Natur;q;0;7;7;0;q;1;0.4658685000613332;002;ARGZ94;2019_Dec_16_1425;iat_vr;60.081241830335856;
1;WASSER;Natur;q;0;8;8;1;q;1;0.5929552000015974;002;ARGZ94;2019_Dec_16_1425;iat_vr;60.081241830335856;
1;STADT;Gemacht;p;0;9;9;6;p;1;0.5647483000066131;002;ARGZ94;2019_Dec_16_1425;iat_vr;60.081241830335856;
1;GEBÄUDE;Gemacht;p;1;0;10;5;p;1;0.6852892999304458;002;ARGZ94;2019_Dec_16_1425;iat_vr;60.081241830335856;
1;STADT;Gemacht;p;1;1;11;6;p;1;0.5318498000269756;002;ARGZ94;2019_Dec_16_1425;iat_vr;60.081241830335856;
1;WASSER;Natur;q;1;2;12;1;q;1;0.46583570004440844;002;ARGZ94;2019_Dec_16_1425;iat_vr;60.081241830335856;
1;LAMPE;Gemacht;p;1;3;13;9;p;1;0.5862903000088409;002;ARGZ94;2019_Dec_16_1425;iat_vr;60.081241830335856;
1;TIER;Natur;q;1;4;14;3;q;1;0.6149626999394968;002;ARGZ94;2019_Dec_16_1425;iat_vr;60.081241830335856;
1;COMPUTER;Gemacht;p;1;5;15;8;p;1;0.5454094000160694;002;ARGZ94;2019_Dec_16_1425;iat_vr;60.081241830335856;
1;BLUME;Natur;q;1;6;16;2;q;1;0.5526191999670118;002;ARGZ94;2019_Dec_16_1425;iat_vr;60.081241830335856;
1;KLEIDER;Gemacht;p;1;7;17;7;p;1;0.6142982000019401;002;ARGZ94;2019_Dec_16_1425;iat_vr;60.081241830335856;
1;BAUM;Natur;q;1;8;18;0;q;1;0.515491500031203;002;ARGZ94;2019_Dec_16_1425;iat_vr;60.081241830335856;
1;STEIN;Natur;q;1;9;19;4;q;1;0.6187599000986665;002;ARGZ94;2019_Dec_16_1425;iat_vr;60.081241830335856;
;;;;;;;;;;;002;ARGZ94;2019_Dec_16_1425;iat_vr;60.081241830335856;
2;AUSGEZEICHNET;positiv;p;0;0;0;5;p;1;0.8574489000020549;002;ARGZ94;2019_Dec_16_1425;iat_vr;60.081241830335856;
2;SCHÄDLICH;negativ;q;0;1;1;3;q;1;0.6622816000599414;002;ARGZ94;2019_Dec_16_1425;iat_vr;60.081241830335856;
2;SCHLIMM;negativ;q;0;2;2;0;q;1;0.4630981999216601;002;ARGZ94;2019_Dec_16_1425;iat_vr;60.081241830335856;
2;GUT;positiv;p;0;3;3;9;p;1;0.48015020007733256;002;ARGZ94;2019_Dec_16_1425;iat_vr;60.081241830335856;
2;NEGATIV;negativ;q;0;4;4;2;q;1;0.707666700007394;002;ARGZ94;2019_Dec_16_1425;iat_vr;60.081241830335856;
2;EINWANDFREI;positiv;p;0;5;5;6;p;1;0.7853956000180915;002;ARGZ94;2019_Dec_16_1425;iat_vr;60.081241830335856;
2;HERVORRAGEND;positiv;p;0;6;6;7;p;1;0.5771231000544503;002;ARGZ94;2019_Dec_16_1425;iat_vr;60.081241830335856;
2;SCHWACH;negativ;q;0;7;7;4;q;1;0.8293200000189245;002;ARGZ94;2019_Dec_16_1425;iat_vr;60.081241830335856;
2;POSITIV;positiv;p;0;8;8;8;p;1;0.8458928000181913;002;ARGZ94;2019_Dec_16_1425;iat_vr;60.081241830335856;
2;SCHLECHT;negativ;q;0;9;9;1;q;1;0.6497975999955088;002;ARGZ94;2019_Dec_16_1425;iat_vr;60.081241830335856;
2;SCHWACH;negativ;q;1;0;10;4;q;1;0.5136475999606773;002;ARGZ94;2019_Dec_16_1425;iat_vr;60.081241830335856;
2;NEGATIV;negativ;q;1;1;11;2;q;1;0.4654448999790475;002;ARGZ94;2019_Dec_16_1425;iat_vr;60.081241830335856;
2;POSITIV;positiv;p;1;2;12;8;p;1;0.5635068999836221;002;ARGZ94;2019_Dec_16_1425;iat_vr;60.081241830335856;
2;HERVORRAGEND;positiv;p;1;3;13;7;p;1;0.4576074000215158;002;ARGZ94;2019_Dec_16_1425;iat_vr;60.081241830335856;
2;GUT;positiv;p;1;4;14;9;p;1;0.3987525999546051;002;ARGZ94;2019_Dec_16_1425;iat_vr;60.081241830335856;
2;SCHLECHT;negativ;q;1;5;15;1;q;1;0.5185499000363052;002;ARGZ94;2019_Dec_16_1425;iat_vr;60.081241830335856;
2;EINWANDFREI;positiv;p;1;6;16;6;p;1;0.7951833000406623;002;ARGZ94;2019_Dec_16_1425;iat_vr;60.081241830335856;
2;SCHLIMM;negativ;q;1;7;17;0;q;1;0.5779403999913484;002;ARGZ94;2019_Dec_16_1425;iat_vr;60.081241830335856;
2;SCHÄDLICH;negativ;q;1;8;18;3;q;1;0.5606812000041828;002;ARGZ94;2019_Dec_16_1425;iat_vr;60.081241830335856;
2;AUSGEZEICHNET;positiv;p;1;9;19;5;p;1;0.5286522000096738;002;ARGZ94;2019_Dec_16_1425;iat_vr;60.081241830335856;
;;;;;;;;;;;002;ARGZ94;2019_Dec_16_1425;iat_vr;60.081241830335856;
3;EINWANDFREI;positiv;p;0;0;0;6;p;1;1.2642353000119328;002;ARGZ94;2019_Dec_16_1425;iat_vr;60.081241830335856;
3;LAMPE;Gemacht;p;0;1;1;19;p;1;1.3621243999805301;002;ARGZ94;2019_Dec_16_1425;iat_vr;60.081241830335856;
3;NEGATIV;negativ;q;0;2;2;2;p;0;0.6166279999306425;002;ARGZ94;2019_Dec_16_1425;iat_vr;60.081241830335856;
3;AUSGEZEICHNET;positiv;p;0;3;3;5;p;1;1.7766745999688283;002;ARGZ94;2019_Dec_16_1425;iat_vr;60.081241830335856;
3;SCHLECHT;negativ;q;0;4;4;1;q;1;1.2469870999921113;002;ARGZ94;2019_Dec_16_1425;iat_vr;60.081241830335856;
3;KLEIDER;Gemacht;p;0;5;5;17;p;1;0.9135639000451192;002;ARGZ94;2019_Dec_16_1425;iat_vr;60.081241830335856;
3;SCHWACH;negativ;q;0;6;6;4;q;1;0.8648530000355095;002;ARGZ94;2019_Dec_16_1425;iat_vr;60.081241830335856;
3;GEBÄUDE;Gemacht;p;0;7;7;15;p;1;0.9970524000236765;002;ARGZ94;2019_Dec_16_1425;iat_vr;60.081241830335856;
3;SCHÄDLICH;negativ;q;0;8;8;3;q;1;0.6461684999521822;002;ARGZ94;2019_Dec_16_1425;iat_vr;60.081241830335856;
3;STADT;Gemacht;p;0;9;9;16;p;1;0.8140090999659151;002;ARGZ94;2019_Dec_16_1425;iat_vr;60.081241830335856;
3;BAUM;Natur;q;0;10;10;10;q;1;0.5486006999853998;002;ARGZ94;2019_Dec_16_1425;iat_vr;60.081241830335856;
3;STEIN;Natur;q;0;11;11;14;q;1;0.7150110000511631;002;ARGZ94;2019_Dec_16_1425;iat_vr;60.081241830335856;
3;COMPUTER;Gemacht;p;0;12;12;18;p;1;0.7308735999977216;002;ARGZ94;2019_Dec_16_1425;iat_vr;60.081241830335856;
3;WASSER;Natur;q;0;13;13;11;q;1;0.6448153000092134;002;ARGZ94;2019_Dec_16_1425;iat_vr;60.081241830335856;
3;TIER;Natur;q;0;14;14;13;q;1;0.7155677999835461;002;ARGZ94;2019_Dec_16_1425;iat_vr;60.081241830335856;
3;POSITIV;positiv;p;0;15;15;8;q;0;0.6345392999937758;002;ARGZ94;2019_Dec_16_1425;iat_vr;60.081241830335856;
3;BLUME;Natur;q;0;16;16;12;q;1;0.8479630999499932;002;ARGZ94;2019_Dec_16_1425;iat_vr;60.081241830335856;
3;SCHLIMM;negativ;q;0;17;17;0;q;1;0.7142165000550449;002;ARGZ94;2019_Dec_16_1425;iat_vr;60.081241830335856;
3;GUT;positiv;p;0;18;18;9;p;1;0.6160846999846399;002;ARGZ94;2019_Dec_16_1425;iat_vr;60.081241830335856;
3;HERVORRAGEND;positiv;p;0;19;19;7;p;1;0.6277470999630168;002;ARGZ94;2019_Dec_16_1425;iat_vr;60.081241830335856;
;;;;;;;;;;;002;ARGZ94;2019_Dec_16_1425;iat_vr;60.081241830335856;
4;BLUME;Natur;q;0;0;0;12;q;1;0.6389953999314457;002;ARGZ94;2019_Dec_16_1425;iat_vr;60.081241830335856;
4;STEIN;Natur;q;0;1;1;14;q;1;0.5803463000338525;002;ARGZ94;2019_Dec_16_1425;iat_vr;60.081241830335856;
4;SCHLECHT;negativ;q;0;2;2;1;q;1;0.6297381999902427;002;ARGZ94;2019_Dec_16_1425;iat_vr;60.081241830335856;
4;AUSGEZEICHNET;positiv;p;0;3;3;5;p;1;0.6612856999272481;002;ARGZ94;2019_Dec_16_1425;iat_vr;60.081241830335856;
4;COMPUTER;Gemacht;p;0;4;4;18;p;1;0.532471299986355;002;ARGZ94;2019_Dec_16_1425;iat_vr;60.081241830335856;
4;GUT;positiv;p;0;5;5;9;p;1;0.5480341999791563;002;ARGZ94;2019_Dec_16_1425;iat_vr;60.081241830335856;
4;KLEIDER;Gemacht;p;0;6;6;17;p;1;0.9643031000159681;002;ARGZ94;2019_Dec_16_1425;iat_vr;60.081241830335856;
4;STADT;Gemacht;p;0;7;7;16;p;1;0.5487090999959037;002;ARGZ94;2019_Dec_16_1425;iat_vr;60.081241830335856;
4;GEBÄUDE;Gemacht;p;0;8;8;15;p;1;0.6973816999234259;002;ARGZ94;2019_Dec_16_1425;iat_vr;60.081241830335856;
4;TIER;Natur;q;0;9;9;13;q;1;0.5156626000534743;002;ARGZ94;2019_Dec_16_1425;iat_vr;60.081241830335856;
4;POSITIV;positiv;p;0;10;10;8;p;1;1.5786067999433726;002;ARGZ94;2019_Dec_16_1425;iat_vr;60.081241830335856;
4;EINWANDFREI;positiv;p;0;11;11;6;p;1;0.5601400000741705;002;ARGZ94;2019_Dec_16_1425;iat_vr;60.081241830335856;
4;NEGATIV;negativ;q;0;12;12;2;q;1;0.6813265000237152;002;ARGZ94;2019_Dec_16_1425;iat_vr;60.081241830335856;
4;LAMPE;Gemacht;p;0;13;13;19;p;1;0.7302832000423223;002;ARGZ94;2019_Dec_16_1425;iat_vr;60.081241830335856;
4;SCHWACH;negativ;q;0;14;14;4;q;1;0.6306279000127688;002;ARGZ94;2019_Dec_16_1425;iat_vr;60.081241830335856;
4;SCHÄDLICH;negativ;q;0;15;15;3;q;1;0.5798280000453815;002;ARGZ94;2019_Dec_16_1425;iat_vr;60.081241830335856;
4;SCHLIMM;negativ;q;0;16;16;0;q;1;0.6472925000125542;002;ARGZ94;2019_Dec_16_1425;iat_vr;60.081241830335856;
4;WASSER;Natur;q;0;17;17;11;q;1;0.5147516999859363;002;ARGZ94;2019_Dec_16_1425;iat_vr;60.081241830335856;
4;BAUM;Natur;q;0;18;18;10;q;1;0.5323108999291435;002;ARGZ94;2019_Dec_16_1425;iat_vr;60.081241830335856;
4;HERVORRAGEND;positiv;p;0;19;19;7;p;1;0.7945726999314502;002;ARGZ94;2019_Dec_16_1425;iat_vr;60.081241830335856;
4;KLEIDER;Gemacht;p;1;0;20;17;p;1;0.6467367999721318;002;ARGZ94;2019_Dec_16_1425;iat_vr;60.081241830335856;
4;SCHWACH;negativ;q;1;1;21;4;q;1;0.6985269000288099;002;ARGZ94;2019_Dec_16_1425;iat_vr;60.081241830335856;
4;HERVORRAGEND;positiv;p;1;2;22;7;p;1;0.5606757999630645;002;ARGZ94;2019_Dec_16_1425;iat_vr;60.081241830335856;
4;NEGATIV;negativ;q;1;3;23;2;q;1;0.6621114000445232;002;ARGZ94;2019_Dec_16_1425;iat_vr;60.081241830335856;
4;BAUM;Natur;q;1;4;24;10;q;1;1.2153690999839455;002;ARGZ94;2019_Dec_16_1425;iat_vr;60.081241830335856;
4;BLUME;Natur;q;1;5;25;12;q;1;0.6315860999748111;002;ARGZ94;2019_Dec_16_1425;iat_vr;60.081241830335856;
4;AUSGEZEICHNET;positiv;p;1;6;26;5;p;1;0.6275432000402361;002;ARGZ94;2019_Dec_16_1425;iat_vr;60.081241830335856;
4;LAMPE;Gemacht;p;1;7;27;19;p;1;0.5855801999568939;002;ARGZ94;2019_Dec_16_1425;iat_vr;60.081241830335856;
4;GUT;positiv;p;1;8;28;9;p;1;0.7662881999276578;002;ARGZ94;2019_Dec_16_1425;iat_vr;60.081241830335856;
4;STEIN;Natur;q;1;9;29;14;q;1;0.6650563000002876;002;ARGZ94;2019_Dec_16_1425;iat_vr;60.081241830335856;
4;SCHLECHT;negativ;q;1;10;30;1;q;1;2.0127453000750393;002;ARGZ94;2019_Dec_16_1425;iat_vr;60.081241830335856;
4;GEBÄUDE;Gemacht;p;1;11;31;15;p;1;0.664166699978523;002;ARGZ94;2019_Dec_16_1425;iat_vr;60.081241830335856;
4;WASSER;Natur;q;1;12;32;11;q;1;0.585811399971135;002;ARGZ94;2019_Dec_16_1425;iat_vr;60.081241830335856;
4;TIER;Natur;q;1;13;33;13;q;1;1.064833699958399;002;ARGZ94;2019_Dec_16_1425;iat_vr;60.081241830335856;
4;SCHÄDLICH;negativ;q;1;14;34;3;q;1;0.8800636000232771;002;ARGZ94;2019_Dec_16_1425;iat_vr;60.081241830335856;
4;SCHLIMM;negativ;q;1;15;35;0;q;1;0.5631632999284193;002;ARGZ94;2019_Dec_16_1425;iat_vr;60.081241830335856;
4;COMPUTER;Gemacht;p;1;16;36;18;p;1;0.5089052000548691;002;ARGZ94;2019_Dec_16_1425;iat_vr;60.081241830335856;
4;POSITIV;positiv;p;1;17;37;8;q;0;0.5471093999221921;002;ARGZ94;2019_Dec_16_1425;iat_vr;60.081241830335856;
4;EINWANDFREI;positiv;p;1;18;38;6;p;1;1.4688859999878332;002;ARGZ94;2019_Dec_16_1425;iat_vr;60.081241830335856;
4;STADT;Gemacht;p;1;19;39;16;p;1;0.6132150000194088;002;ARGZ94;2019_Dec_16_1425;iat_vr;60.081241830335856;
;;;;;;;;;;;002;ARGZ94;2019_Dec_16_1425;iat_vr;60.081241830335856;
5;COMPUTER;Gemacht;q;0;0;0;8;q;1;0.911026900052093;002;ARGZ94;2019_Dec_16_1425;iat_vr;60.081241830335856;
5;TIER;Natur;p;0;1;1;3;p;1;0.6856113000540063;002;ARGZ94;2019_Dec_16_1425;iat_vr;60.081241830335856;
5;LAMPE;Gemacht;q;0;2;2;9;q;1;0.7321325000375509;002;ARGZ94;2019_Dec_16_1425;iat_vr;60.081241830335856;
5;BLUME;Natur;p;0;3;3;2;p;1;0.88005170004908;002;ARGZ94;2019_Dec_16_1425;iat_vr;60.081241830335856;
5;WASSER;Natur;p;0;4;4;1;p;1;0.681727199931629;002;ARGZ94;2019_Dec_16_1425;iat_vr;60.081241830335856;
5;BAUM;Natur;p;0;5;5;0;p;1;0.5657766000367701;002;ARGZ94;2019_Dec_16_1425;iat_vr;60.081241830335856;
5;STADT;Gemacht;q;0;6;6;6;q;1;0.5757431999081746;002;ARGZ94;2019_Dec_16_1425;iat_vr;60.081241830335856;
5;GEBÄUDE;Gemacht;q;0;7;7;5;q;1;0.8635108000598848;002;ARGZ94;2019_Dec_16_1425;iat_vr;60.081241830335856;
5;KLEIDER;Gemacht;q;0;8;8;7;q;1;0.5814893000060692;002;ARGZ94;2019_Dec_16_1425;iat_vr;60.081241830335856;
5;STEIN;Natur;p;0;9;9;4;p;1;0.5114607000723481;002;ARGZ94;2019_Dec_16_1425;iat_vr;60.081241830335856;
5;WASSER;Natur;p;1;0;10;1;p;1;0.5139242999721318;002;ARGZ94;2019_Dec_16_1425;iat_vr;60.081241830335856;
5;TIER;Natur;p;1;1;11;3;p;1;1.0820418000221252;002;ARGZ94;2019_Dec_16_1425;iat_vr;60.081241830335856;
5;COMPUTER;Gemacht;q;1;2;12;8;q;1;0.5980932000093162;002;ARGZ94;2019_Dec_16_1425;iat_vr;60.081241830335856;
5;GEBÄUDE;Gemacht;q;1;3;13;5;q;1;0.6460851000156254;002;ARGZ94;2019_Dec_16_1425;iat_vr;60.081241830335856;
5;STADT;Gemacht;q;1;4;14;6;q;1;0.5317479999503121;002;ARGZ94;2019_Dec_16_1425;iat_vr;60.081241830335856;
5;STEIN;Natur;p;1;5;15;4;p;1;0.513944000005722;002;ARGZ94;2019_Dec_16_1425;iat_vr;60.081241830335856;
5;BLUME;Natur;p;1;6;16;2;p;1;0.46518669999204576;002;ARGZ94;2019_Dec_16_1425;iat_vr;60.081241830335856;
5;LAMPE;Gemacht;q;1;7;17;9;q;1;0.5816226000897586;002;ARGZ94;2019_Dec_16_1425;iat_vr;60.081241830335856;
5;KLEIDER;Gemacht;q;1;8;18;7;q;1;0.8146892000222579;002;ARGZ94;2019_Dec_16_1425;iat_vr;60.081241830335856;
5;BAUM;Natur;p;1;9;19;0;p;1;0.7824074999662116;002;ARGZ94;2019_Dec_16_1425;iat_vr;60.081241830335856;
;;;;;;;;;;;002;ARGZ94;2019_Dec_16_1425;iat_vr;60.081241830335856;
6;TIER;Natur;p;0;0;0;3;p;1;0.7469614000292495;002;ARGZ94;2019_Dec_16_1425;iat_vr;60.081241830335856;
6;HERVORRAGEND;positiv;p;0;1;1;17;p;1;0.5452693001134321;002;ARGZ94;2019_Dec_16_1425;iat_vr;60.081241830335856;
6;BAUM;Natur;p;0;2;2;0;p;1;0.5493009999627247;002;ARGZ94;2019_Dec_16_1425;iat_vr;60.081241830335856;
6;BLUME;Natur;p;0;3;3;2;p;1;0.5315651999553666;002;ARGZ94;2019_Dec_16_1425;iat_vr;60.081241830335856;
6;KLEIDER;Gemacht;q;0;4;4;7;q;1;0.7024507999885827;002;ARGZ94;2019_Dec_16_1425;iat_vr;60.081241830335856;
6;SCHWACH;negativ;q;0;5;5;14;q;1;0.729966799961403;002;ARGZ94;2019_Dec_16_1425;iat_vr;60.081241830335856;
6;AUSGEZEICHNET;positiv;p;0;6;6;15;p;1;0.6578646000707522;002;ARGZ94;2019_Dec_16_1425;iat_vr;60.081241830335856;
6;STADT;Gemacht;q;0;7;7;6;q;1;0.7815628000535071;002;ARGZ94;2019_Dec_16_1425;iat_vr;60.081241830335856;
6;SCHÄDLICH;negativ;q;0;8;8;13;q;1;1.0632053000153974;002;ARGZ94;2019_Dec_16_1425;iat_vr;60.081241830335856;
6;SCHLIMM;negativ;q;0;9;9;10;q;1;1.050165000022389;002;ARGZ94;2019_Dec_16_1425;iat_vr;60.081241830335856;
6;POSITIV;positiv;p;0;10;10;18;p;1;0.9143711999058723;002;ARGZ94;2019_Dec_16_1425;iat_vr;60.081241830335856;
6;NEGATIV;negativ;q;0;11;11;12;q;1;0.6467152000404894;002;ARGZ94;2019_Dec_16_1425;iat_vr;60.081241830335856;
6;WASSER;Natur;p;0;12;12;1;p;1;0.5978109000716358;002;ARGZ94;2019_Dec_16_1425;iat_vr;60.081241830335856;
6;GUT;positiv;p;0;13;13;19;p;1;0.6484961999813095;002;ARGZ94;2019_Dec_16_1425;iat_vr;60.081241830335856;
6;COMPUTER;Gemacht;q;0;14;14;8;q;1;0.6640235999366269;002;ARGZ94;2019_Dec_16_1425;iat_vr;60.081241830335856;
6;SCHLECHT;negativ;q;0;15;15;11;q;1;1.030284499982372;002;ARGZ94;2019_Dec_16_1425;iat_vr;60.081241830335856;
6;GEBÄUDE;Gemacht;q;0;16;16;5;q;1;0.8304095000494272;002;ARGZ94;2019_Dec_16_1425;iat_vr;60.081241830335856;
6;EINWANDFREI;positiv;p;0;17;17;16;p;1;0.6603456999873742;002;ARGZ94;2019_Dec_16_1425;iat_vr;60.081241830335856;
6;LAMPE;Gemacht;q;0;18;18;9;q;1;0.6473122000461444;002;ARGZ94;2019_Dec_16_1425;iat_vr;60.081241830335856;
6;STEIN;Natur;p;0;19;19;4;p;1;0.44695060001686215;002;ARGZ94;2019_Dec_16_1425;iat_vr;60.081241830335856;
;;;;;;;;;;;002;ARGZ94;2019_Dec_16_1425;iat_vr;60.081241830335856;
7;BLUME;Natur;p;0;0;0;2;p;1;0.8705799999879673;002;ARGZ94;2019_Dec_16_1425;iat_vr;60.081241830335856;
7;STADT;Gemacht;q;0;1;1;6;q;1;0.6144992999034002;002;ARGZ94;2019_Dec_16_1425;iat_vr;60.081241830335856;
7;KLEIDER;Gemacht;q;0;2;2;7;q;1;0.5852514000143856;002;ARGZ94;2019_Dec_16_1425;iat_vr;60.081241830335856;
7;EINWANDFREI;positiv;p;0;3;3;16;p;1;0.562333200010471;002;ARGZ94;2019_Dec_16_1425;iat_vr;60.081241830335856;
7;HERVORRAGEND;positiv;p;0;4;4;17;p;1;0.5454453000565991;002;ARGZ94;2019_Dec_16_1425;iat_vr;60.081241830335856;
7;STEIN;Natur;p;0;5;5;4;p;1;0.5155108999460936;002;ARGZ94;2019_Dec_16_1425;iat_vr;60.081241830335856;
7;LAMPE;Gemacht;q;0;6;6;9;q;1;0.581715099979192;002;ARGZ94;2019_Dec_16_1425;iat_vr;60.081241830335856;
7;COMPUTER;Gemacht;q;0;7;7;8;q;1;0.5798580000409856;002;ARGZ94;2019_Dec_16_1425;iat_vr;60.081241830335856;
7;GUT;positiv;p;0;8;8;19;p;1;0.49864080001134425;002;ARGZ94;2019_Dec_16_1425;iat_vr;60.081241830335856;
7;SCHLIMM;negativ;q;0;9;9;10;q;1;0.5125453000655398;002;ARGZ94;2019_Dec_16_1425;iat_vr;60.081241830335856;
7;TIER;Natur;p;0;10;10;3;p;1;0.7473549999995157;002;ARGZ94;2019_Dec_16_1425;iat_vr;60.081241830335856;
7;NEGATIV;negativ;q;0;11;11;12;q;1;0.6293948000529781;002;ARGZ94;2019_Dec_16_1425;iat_vr;60.081241830335856;
7;SCHWACH;negativ;q;0;12;12;14;q;1;0.6307016999926418;002;ARGZ94;2019_Dec_16_1425;iat_vr;60.081241830335856;
7;SCHLECHT;negativ;q;0;13;13;11;q;1;0.46387839992530644;002;ARGZ94;2019_Dec_16_1425;iat_vr;60.081241830335856;
7;AUSGEZEICHNET;positiv;p;0;14;14;15;p;1;0.5944906000513583;002;ARGZ94;2019_Dec_16_1425;iat_vr;60.081241830335856;
7;GEBÄUDE;Gemacht;q;0;15;15;5;q;1;0.5634687999263406;002;ARGZ94;2019_Dec_16_1425;iat_vr;60.081241830335856;
7;BAUM;Natur;p;0;16;16;0;p;1;0.46405360009521246;002;ARGZ94;2019_Dec_16_1425;iat_vr;60.081241830335856;
7;POSITIV;positiv;p;0;17;17;18;p;1;0.5439100000075996;002;ARGZ94;2019_Dec_16_1425;iat_vr;60.081241830335856;
7;WASSER;Natur;p;0;18;18;1;p;1;0.530942700104788;002;ARGZ94;2019_Dec_16_1425;iat_vr;60.081241830335856;
7;SCHÄDLICH;negativ;q;0;19;19;13;q;1;0.49661290005315095;002;ARGZ94;2019_Dec_16_1425;iat_vr;60.081241830335856;
7;WASSER;Natur;p;1;0;20;1;p;1;0.5466153000015765;002;ARGZ94;2019_Dec_16_1425;iat_vr;60.081241830335856;
7;SCHLIMM;negativ;q;1;1;21;10;q;1;1.130758500075899;002;ARGZ94;2019_Dec_16_1425;iat_vr;60.081241830335856;
7;NEGATIV;negativ;q;1;2;22;12;q;1;0.6968277000123635;002;ARGZ94;2019_Dec_16_1425;iat_vr;60.081241830335856;
7;TIER;Natur;p;1;3;23;3;p;1;0.48039599996991456;002;ARGZ94;2019_Dec_16_1425;iat_vr;60.081241830335856;
7;POSITIV;positiv;p;1;4;24;18;p;1;0.5142374000279233;002;ARGZ94;2019_Dec_16_1425;iat_vr;60.081241830335856;
7;KLEIDER;Gemacht;q;1;5;25;7;q;1;0.6303185999859124;002;ARGZ94;2019_Dec_16_1425;iat_vr;60.081241830335856;
7;SCHWACH;negativ;q;1;6;26;14;q;1;0.6142472999636084;002;ARGZ94;2019_Dec_16_1425;iat_vr;60.081241830335856;
7;HERVORRAGEND;positiv;p;1;7;27;17;p;1;0.5278619000455365;002;ARGZ94;2019_Dec_16_1425;iat_vr;60.081241830335856;
7;STADT;Gemacht;q;1;8;28;6;q;1;0.5993719999678433;002;ARGZ94;2019_Dec_16_1425;iat_vr;60.081241830335856;
7;LAMPE;Gemacht;q;1;9;29;9;q;1;0.5648254998959601;002;ARGZ94;2019_Dec_16_1425;iat_vr;60.081241830335856;
7;SCHÄDLICH;negativ;q;1;10;30;13;q;1;0.6458701000083238;002;ARGZ94;2019_Dec_16_1425;iat_vr;60.081241830335856;
7;BAUM;Natur;p;1;11;31;0;p;1;0.43239480000920594;002;ARGZ94;2019_Dec_16_1425;iat_vr;60.081241830335856;
7;STEIN;Natur;p;1;12;32;4;p;1;0.5461371999699622;002;ARGZ94;2019_Dec_16_1425;iat_vr;60.081241830335856;
7;SCHLECHT;negativ;q;1;13;33;11;q;1;0.4801912000402808;002;ARGZ94;2019_Dec_16_1425;iat_vr;60.081241830335856;
7;COMPUTER;Gemacht;q;1;14;34;8;q;1;0.5463003000477329;002;ARGZ94;2019_Dec_16_1425;iat_vr;60.081241830335856;
7;GEBÄUDE;Gemacht;q;1;15;35;5;q;1;0.6122856000438333;002;ARGZ94;2019_Dec_16_1425;iat_vr;60.081241830335856;
7;AUSGEZEICHNET;positiv;p;1;16;36;15;p;1;0.5947516999440268;002;ARGZ94;2019_Dec_16_1425;iat_vr;60.081241830335856;
7;GUT;positiv;p;1;17;37;19;p;1;0.44838860002346337;002;ARGZ94;2019_Dec_16_1425;iat_vr;60.081241830335856;
7;EINWANDFREI;positiv;p;1;18;38;16;p;1;0.6104514000471681;002;ARGZ94;2019_Dec_16_1425;iat_vr;60.081241830335856;
7;BLUME;Natur;p;1;19;39;2;p;1;0.5147142000496387;002;ARGZ94;2019_Dec_16_1425;iat_vr;60.081241830335856;
;;;;;;;;;;;002;ARGZ94;2019_Dec_16_1425;iat_vr;60.081241830335856;
