Block;Word;Category;CorrResp;trials.thisRepN;trials.thisTrialN;trials.thisN;trials.thisIndex;key_resp_2.keys;key_resp_2.corr;key_resp_2.rt;session;participant;date;expName;frameRate;
1;BLUME;Natur;q;0;0;0;2;q;1;0.7108623999993142;002;ARJA99;2019_Nov_25_1544;iat_vr;60.35738816668151;
1;COMPUTER;Gemacht;p;0;1;1;8;p;1;1.001432199998817;002;ARJA99;2019_Nov_25_1544;iat_vr;60.35738816668151;
1;BAUM;Natur;q;0;2;2;0;q;1;0.9127029000010225;002;ARJA99;2019_Nov_25_1544;iat_vr;60.35738816668151;
1;KLEIDER;Gemacht;p;0;3;3;7;p;1;0.807123299997329;002;ARJA99;2019_Nov_25_1544;iat_vr;60.35738816668151;
1;STEIN;Natur;q;0;4;4;4;q;1;0.7522791000010329;002;ARJA99;2019_Nov_25_1544;iat_vr;60.35738816668151;
1;TIER;Natur;q;0;5;5;3;q;1;0.6157241000000795;002;ARJA99;2019_Nov_25_1544;iat_vr;60.35738816668151;
1;WASSER;Natur;q;0;6;6;1;q;1;0.6593788999998651;002;ARJA99;2019_Nov_25_1544;iat_vr;60.35738816668151;
1;STADT;Gemacht;p;0;7;7;6;p;1;0.5983243999980914;002;ARJA99;2019_Nov_25_1544;iat_vr;60.35738816668151;
1;LAMPE;Gemacht;p;0;8;8;9;p;1;0.7301449999977194;002;ARJA99;2019_Nov_25_1544;iat_vr;60.35738816668151;
1;GEBÄUDE;Gemacht;p;0;9;9;5;p;1;0.5895553999980621;002;ARJA99;2019_Nov_25_1544;iat_vr;60.35738816668151;
1;BLUME;Natur;q;1;0;10;2;q;1;0.7664746999980707;002;ARJA99;2019_Nov_25_1544;iat_vr;60.35738816668151;
1;GEBÄUDE;Gemacht;p;1;1;11;5;p;1;0.614875100000063;002;ARJA99;2019_Nov_25_1544;iat_vr;60.35738816668151;
1;WASSER;Natur;q;1;2;12;1;q;1;0.8477062000019941;002;ARJA99;2019_Nov_25_1544;iat_vr;60.35738816668151;
1;BAUM;Natur;q;1;3;13;0;q;1;0.9654919999993581;002;ARJA99;2019_Nov_25_1544;iat_vr;60.35738816668151;
1;LAMPE;Gemacht;p;1;4;14;9;p;1;0.6812387999998464;002;ARJA99;2019_Nov_25_1544;iat_vr;60.35738816668151;
1;COMPUTER;Gemacht;p;1;5;15;8;p;1;0.6674800000000687;002;ARJA99;2019_Nov_25_1544;iat_vr;60.35738816668151;
1;STEIN;Natur;q;1;6;16;4;q;1;0.7241998999998032;002;ARJA99;2019_Nov_25_1544;iat_vr;60.35738816668151;
1;KLEIDER;Gemacht;p;1;7;17;7;p;1;0.7435652999993181;002;ARJA99;2019_Nov_25_1544;iat_vr;60.35738816668151;
1;TIER;Natur;q;1;8;18;3;q;1;1.199088599998504;002;ARJA99;2019_Nov_25_1544;iat_vr;60.35738816668151;
1;STADT;Gemacht;p;1;9;19;6;p;1;0.60555789999853;002;ARJA99;2019_Nov_25_1544;iat_vr;60.35738816668151;
;;;;;;;;;;;002;ARJA99;2019_Nov_25_1544;iat_vr;60.35738816668151;
2;POSITIV;positiv;p;0;0;0;8;p;1;0.7727088999999978;002;ARJA99;2019_Nov_25_1544;iat_vr;60.35738816668151;
2;SCHWACH;negativ;q;0;1;1;4;q;1;0.6079346999977133;002;ARJA99;2019_Nov_25_1544;iat_vr;60.35738816668151;
2;SCHÄDLICH;negativ;q;0;2;2;3;q;1;0.6593939999984286;002;ARJA99;2019_Nov_25_1544;iat_vr;60.35738816668151;
2;EINWANDFREI;positiv;p;0;3;3;6;p;1;0.7753257000003941;002;ARJA99;2019_Nov_25_1544;iat_vr;60.35738816668151;
2;SCHLECHT;negativ;q;0;4;4;1;q;1;0.6314893999988271;002;ARJA99;2019_Nov_25_1544;iat_vr;60.35738816668151;
2;HERVORRAGEND;positiv;p;0;5;5;7;p;1;0.7932246999989729;002;ARJA99;2019_Nov_25_1544;iat_vr;60.35738816668151;
2;AUSGEZEICHNET;positiv;p;0;6;6;5;p;1;0.6894109000022581;002;ARJA99;2019_Nov_25_1544;iat_vr;60.35738816668151;
2;SCHLIMM;negativ;q;0;7;7;0;q;1;0.5633510000006936;002;ARJA99;2019_Nov_25_1544;iat_vr;60.35738816668151;
2;NEGATIV;negativ;q;0;8;8;2;q;1;0.6132322000012209;002;ARJA99;2019_Nov_25_1544;iat_vr;60.35738816668151;
2;GUT;positiv;p;0;9;9;9;p;1;0.5483028999988164;002;ARJA99;2019_Nov_25_1544;iat_vr;60.35738816668151;
2;EINWANDFREI;positiv;p;1;0;10;6;p;1;1.218772899999749;002;ARJA99;2019_Nov_25_1544;iat_vr;60.35738816668151;
2;AUSGEZEICHNET;positiv;p;1;1;11;5;p;1;0.6955219000010402;002;ARJA99;2019_Nov_25_1544;iat_vr;60.35738816668151;
2;NEGATIV;negativ;q;1;2;12;2;q;1;0.6178164999982982;002;ARJA99;2019_Nov_25_1544;iat_vr;60.35738816668151;
2;HERVORRAGEND;positiv;p;1;3;13;7;p;1;0.7264203000013367;002;ARJA99;2019_Nov_25_1544;iat_vr;60.35738816668151;
2;SCHWACH;negativ;q;1;4;14;4;q;1;0.6459894999970857;002;ARJA99;2019_Nov_25_1544;iat_vr;60.35738816668151;
2;SCHLIMM;negativ;q;1;5;15;0;q;1;0.6960596999997506;002;ARJA99;2019_Nov_25_1544;iat_vr;60.35738816668151;
2;SCHLECHT;negativ;q;1;6;16;1;q;1;0.6150995999996667;002;ARJA99;2019_Nov_25_1544;iat_vr;60.35738816668151;
2;GUT;positiv;p;1;7;17;9;p;1;0.5661213999992469;002;ARJA99;2019_Nov_25_1544;iat_vr;60.35738816668151;
2;POSITIV;positiv;p;1;8;18;8;p;1;0.8142607000008866;002;ARJA99;2019_Nov_25_1544;iat_vr;60.35738816668151;
2;SCHÄDLICH;negativ;q;1;9;19;3;q;1;0.7121139000009862;002;ARJA99;2019_Nov_25_1544;iat_vr;60.35738816668151;
;;;;;;;;;;;002;ARJA99;2019_Nov_25_1544;iat_vr;60.35738816668151;
3;COMPUTER;Gemacht;p;0;0;0;18;p;1;1.6657969999978377;002;ARJA99;2019_Nov_25_1544;iat_vr;60.35738816668151;
3;STADT;Gemacht;p;0;1;1;16;p;1;0.7982697000006738;002;ARJA99;2019_Nov_25_1544;iat_vr;60.35738816668151;
3;LAMPE;Gemacht;p;0;2;2;19;p;1;0.6488953999978548;002;ARJA99;2019_Nov_25_1544;iat_vr;60.35738816668151;
3;STEIN;Natur;q;0;3;3;14;q;1;0.6527786999977252;002;ARJA99;2019_Nov_25_1544;iat_vr;60.35738816668151;
3;HERVORRAGEND;positiv;p;0;4;4;7;p;1;0.7118224999976519;002;ARJA99;2019_Nov_25_1544;iat_vr;60.35738816668151;
3;WASSER;Natur;q;0;5;5;11;q;1;1.1985407000029227;002;ARJA99;2019_Nov_25_1544;iat_vr;60.35738816668151;
3;EINWANDFREI;positiv;p;0;6;6;6;p;1;0.8284951000023284;002;ARJA99;2019_Nov_25_1544;iat_vr;60.35738816668151;
3;POSITIV;positiv;p;0;7;7;8;p;1;0.8142598000013095;002;ARJA99;2019_Nov_25_1544;iat_vr;60.35738816668151;
3;GUT;positiv;p;0;8;8;9;p;1;0.46455240000068443;002;ARJA99;2019_Nov_25_1544;iat_vr;60.35738816668151;
3;SCHWACH;negativ;q;0;9;9;4;q;1;0.5304477999998198;002;ARJA99;2019_Nov_25_1544;iat_vr;60.35738816668151;
3;TIER;Natur;q;0;10;10;13;q;1;0.8826383000014175;002;ARJA99;2019_Nov_25_1544;iat_vr;60.35738816668151;
3;NEGATIV;negativ;q;0;11;11;2;q;1;0.831160000001546;002;ARJA99;2019_Nov_25_1544;iat_vr;60.35738816668151;
3;BLUME;Natur;q;0;12;12;12;q;1;1.2489296999992803;002;ARJA99;2019_Nov_25_1544;iat_vr;60.35738816668151;
3;BAUM;Natur;q;0;13;13;10;q;1;0.5531756999989739;002;ARJA99;2019_Nov_25_1544;iat_vr;60.35738816668151;
3;SCHLIMM;negativ;q;0;14;14;0;q;1;0.7696818999975221;002;ARJA99;2019_Nov_25_1544;iat_vr;60.35738816668151;
3;SCHLECHT;negativ;q;0;15;15;1;q;1;0.5282612000009976;002;ARJA99;2019_Nov_25_1544;iat_vr;60.35738816668151;
3;KLEIDER;Gemacht;p;0;16;16;17;p;1;0.6644966999992903;002;ARJA99;2019_Nov_25_1544;iat_vr;60.35738816668151;
3;AUSGEZEICHNET;positiv;p;0;17;17;5;p;1;0.6264016999994055;002;ARJA99;2019_Nov_25_1544;iat_vr;60.35738816668151;
3;SCHÄDLICH;negativ;q;0;18;18;3;q;1;0.9286940999991202;002;ARJA99;2019_Nov_25_1544;iat_vr;60.35738816668151;
3;GEBÄUDE;Gemacht;p;0;19;19;15;p;1;1.0818996999987576;002;ARJA99;2019_Nov_25_1544;iat_vr;60.35738816668151;
;;;;;;;;;;;002;ARJA99;2019_Nov_25_1544;iat_vr;60.35738816668151;
4;BLUME;Natur;q;0;0;0;12;q;1;0.7703020999979344;002;ARJA99;2019_Nov_25_1544;iat_vr;60.35738816668151;
4;BAUM;Natur;q;0;1;1;10;q;1;0.480272499997227;002;ARJA99;2019_Nov_25_1544;iat_vr;60.35738816668151;
4;SCHÄDLICH;negativ;q;0;2;2;3;p;0;0.9793804000000819;002;ARJA99;2019_Nov_25_1544;iat_vr;60.35738816668151;
4;COMPUTER;Gemacht;p;0;3;3;18;p;1;0.9142073000002711;002;ARJA99;2019_Nov_25_1544;iat_vr;60.35738816668151;
4;KLEIDER;Gemacht;p;0;4;4;17;p;1;0.9475624000006064;002;ARJA99;2019_Nov_25_1544;iat_vr;60.35738816668151;
4;SCHLECHT;negativ;q;0;5;5;1;q;1;1.1143563000005088;002;ARJA99;2019_Nov_25_1544;iat_vr;60.35738816668151;
4;SCHLIMM;negativ;q;0;6;6;0;q;1;0.6294326000024739;002;ARJA99;2019_Nov_25_1544;iat_vr;60.35738816668151;
4;POSITIV;positiv;p;0;7;7;8;p;1;0.5961662999980035;002;ARJA99;2019_Nov_25_1544;iat_vr;60.35738816668151;
4;EINWANDFREI;positiv;p;0;8;8;6;p;1;0.6301361000005272;002;ARJA99;2019_Nov_25_1544;iat_vr;60.35738816668151;
4;AUSGEZEICHNET;positiv;p;0;9;9;5;p;1;0.576832499999;002;ARJA99;2019_Nov_25_1544;iat_vr;60.35738816668151;
4;HERVORRAGEND;positiv;p;0;10;10;7;p;1;0.5604569999995874;002;ARJA99;2019_Nov_25_1544;iat_vr;60.35738816668151;
4;TIER;Natur;q;0;11;11;13;q;1;0.615050100001099;002;ARJA99;2019_Nov_25_1544;iat_vr;60.35738816668151;
4;STEIN;Natur;q;0;12;12;14;q;1;0.5726394999983313;002;ARJA99;2019_Nov_25_1544;iat_vr;60.35738816668151;
4;STADT;Gemacht;p;0;13;13;16;p;1;0.7999330999991798;002;ARJA99;2019_Nov_25_1544;iat_vr;60.35738816668151;
4;GUT;positiv;p;0;14;14;9;p;1;0.9004409999979543;002;ARJA99;2019_Nov_25_1544;iat_vr;60.35738816668151;
4;NEGATIV;negativ;q;0;15;15;2;q;1;0.6504267999989679;002;ARJA99;2019_Nov_25_1544;iat_vr;60.35738816668151;
4;WASSER;Natur;q;0;16;16;11;q;1;0.6197279000007256;002;ARJA99;2019_Nov_25_1544;iat_vr;60.35738816668151;
4;GEBÄUDE;Gemacht;p;0;17;17;15;p;1;0.765280999999959;002;ARJA99;2019_Nov_25_1544;iat_vr;60.35738816668151;
4;SCHWACH;negativ;q;0;18;18;4;q;1;0.6472401000028185;002;ARJA99;2019_Nov_25_1544;iat_vr;60.35738816668151;
4;LAMPE;Gemacht;p;0;19;19;19;p;1;0.9797032000024046;002;ARJA99;2019_Nov_25_1544;iat_vr;60.35738816668151;
4;SCHLIMM;negativ;q;1;0;20;0;q;1;0.664510300000984;002;ARJA99;2019_Nov_25_1544;iat_vr;60.35738816668151;
4;STEIN;Natur;q;1;1;21;14;q;1;1.0483036000005086;002;ARJA99;2019_Nov_25_1544;iat_vr;60.35738816668151;
4;SCHWACH;negativ;q;1;2;22;4;q;1;0.5306092000028002;002;ARJA99;2019_Nov_25_1544;iat_vr;60.35738816668151;
4;GUT;positiv;p;1;3;23;9;p;1;0.6473098000024038;002;ARJA99;2019_Nov_25_1544;iat_vr;60.35738816668151;
4;TIER;Natur;q;1;4;24;13;q;1;0.6322429000028933;002;ARJA99;2019_Nov_25_1544;iat_vr;60.35738816668151;
4;SCHLECHT;negativ;q;1;5;25;1;q;1;0.86388960000113;002;ARJA99;2019_Nov_25_1544;iat_vr;60.35738816668151;
4;LAMPE;Gemacht;p;1;6;26;19;p;1;0.6516705000030925;002;ARJA99;2019_Nov_25_1544;iat_vr;60.35738816668151;
4;STADT;Gemacht;p;1;7;27;16;p;1;0.632462100002158;002;ARJA99;2019_Nov_25_1544;iat_vr;60.35738816668151;
4;AUSGEZEICHNET;positiv;p;1;8;28;5;p;1;0.6265626000022166;002;ARJA99;2019_Nov_25_1544;iat_vr;60.35738816668151;
4;POSITIV;positiv;p;1;9;29;8;p;1;0.7148485999969125;002;ARJA99;2019_Nov_25_1544;iat_vr;60.35738816668151;
4;BAUM;Natur;q;1;10;30;10;q;1;0.8820210000012594;002;ARJA99;2019_Nov_25_1544;iat_vr;60.35738816668151;
4;NEGATIV;negativ;q;1;11;31;2;q;1;0.8297464000024775;002;ARJA99;2019_Nov_25_1544;iat_vr;60.35738816668151;
4;WASSER;Natur;q;1;12;32;11;q;1;0.7820977999981551;002;ARJA99;2019_Nov_25_1544;iat_vr;60.35738816668151;
4;COMPUTER;Gemacht;p;1;13;33;18;p;1;0.6794130999987829;002;ARJA99;2019_Nov_25_1544;iat_vr;60.35738816668151;
4;HERVORRAGEND;positiv;p;1;14;34;7;p;1;1.3117106999998214;002;ARJA99;2019_Nov_25_1544;iat_vr;60.35738816668151;
4;KLEIDER;Gemacht;p;1;15;35;17;p;1;0.7605074999992212;002;ARJA99;2019_Nov_25_1544;iat_vr;60.35738816668151;
4;BLUME;Natur;q;1;16;36;12;q;1;0.7987462999990385;002;ARJA99;2019_Nov_25_1544;iat_vr;60.35738816668151;
4;EINWANDFREI;positiv;p;1;17;37;6;p;1;1.4457092999982706;002;ARJA99;2019_Nov_25_1544;iat_vr;60.35738816668151;
4;SCHÄDLICH;negativ;q;1;18;38;3;q;1;0.6132591999994474;002;ARJA99;2019_Nov_25_1544;iat_vr;60.35738816668151;
4;GEBÄUDE;Gemacht;p;1;19;39;15;p;1;0.9808387999983097;002;ARJA99;2019_Nov_25_1544;iat_vr;60.35738816668151;
;;;;;;;;;;;002;ARJA99;2019_Nov_25_1544;iat_vr;60.35738816668151;
5;KLEIDER;Gemacht;q;0;0;0;7;q;1;0.8107721999986097;002;ARJA99;2019_Nov_25_1544;iat_vr;60.35738816668151;
5;BLUME;Natur;p;0;1;1;2;p;1;0.8974723999999696;002;ARJA99;2019_Nov_25_1544;iat_vr;60.35738816668151;
5;GEBÄUDE;Gemacht;q;0;2;2;5;q;1;1.4187568000015744;002;ARJA99;2019_Nov_25_1544;iat_vr;60.35738816668151;
5;TIER;Natur;p;0;3;3;3;p;1;0.7485106000021915;002;ARJA99;2019_Nov_25_1544;iat_vr;60.35738816668151;
5;STEIN;Natur;p;0;4;4;4;p;1;1.2156084000016563;002;ARJA99;2019_Nov_25_1544;iat_vr;60.35738816668151;
5;COMPUTER;Gemacht;q;0;5;5;8;q;1;0.7460944000013114;002;ARJA99;2019_Nov_25_1544;iat_vr;60.35738816668151;
5;LAMPE;Gemacht;q;0;6;6;9;q;1;1.3191049999986717;002;ARJA99;2019_Nov_25_1544;iat_vr;60.35738816668151;
5;BAUM;Natur;p;0;7;7;0;p;1;0.6655131000006804;002;ARJA99;2019_Nov_25_1544;iat_vr;60.35738816668151;
5;WASSER;Natur;p;0;8;8;1;p;1;0.7644992999994429;002;ARJA99;2019_Nov_25_1544;iat_vr;60.35738816668151;
5;STADT;Gemacht;q;0;9;9;6;q;1;0.6648075999983121;002;ARJA99;2019_Nov_25_1544;iat_vr;60.35738816668151;
5;LAMPE;Gemacht;q;1;0;10;9;q;1;0.8631009999990056;002;ARJA99;2019_Nov_25_1544;iat_vr;60.35738816668151;
5;COMPUTER;Gemacht;q;1;1;11;8;p;0;0.5650151000008918;002;ARJA99;2019_Nov_25_1544;iat_vr;60.35738816668151;
5;KLEIDER;Gemacht;q;1;2;12;7;q;1;1.4621310000002268;002;ARJA99;2019_Nov_25_1544;iat_vr;60.35738816668151;
5;BLUME;Natur;p;1;3;13;2;p;1;0.7649837000026309;002;ARJA99;2019_Nov_25_1544;iat_vr;60.35738816668151;
5;GEBÄUDE;Gemacht;q;1;4;14;5;q;1;0.8295999000001757;002;ARJA99;2019_Nov_25_1544;iat_vr;60.35738816668151;
5;BAUM;Natur;p;1;5;15;0;p;1;0.7148716999981843;002;ARJA99;2019_Nov_25_1544;iat_vr;60.35738816668151;
5;WASSER;Natur;p;1;6;16;1;p;1;0.6320252000004984;002;ARJA99;2019_Nov_25_1544;iat_vr;60.35738816668151;
5;STADT;Gemacht;q;1;7;17;6;q;1;0.67914010000095;002;ARJA99;2019_Nov_25_1544;iat_vr;60.35738816668151;
5;STEIN;Natur;p;1;8;18;4;p;1;0.7819650999990699;002;ARJA99;2019_Nov_25_1544;iat_vr;60.35738816668151;
5;TIER;Natur;p;1;9;19;3;p;1;0.8309229000005871;002;ARJA99;2019_Nov_25_1544;iat_vr;60.35738816668151;
;;;;;;;;;;;002;ARJA99;2019_Nov_25_1544;iat_vr;60.35738816668151;
6;BLUME;Natur;p;0;0;0;2;p;1;0.9075950000005832;002;ARJA99;2019_Nov_25_1544;iat_vr;60.35738816668151;
6;HERVORRAGEND;positiv;p;0;1;1;17;p;1;0.5461153000032937;002;ARJA99;2019_Nov_25_1544;iat_vr;60.35738816668151;
6;GUT;positiv;p;0;2;2;19;p;1;0.49867729999823496;002;ARJA99;2019_Nov_25_1544;iat_vr;60.35738816668151;
6;SCHWACH;negativ;q;0;3;3;14;q;1;0.6021737999981269;002;ARJA99;2019_Nov_25_1544;iat_vr;60.35738816668151;
6;SCHLECHT;negativ;q;0;4;4;11;q;1;0.4637120999977924;002;ARJA99;2019_Nov_25_1544;iat_vr;60.35738816668151;
6;NEGATIV;negativ;q;0;5;5;12;q;1;0.697943099999975;002;ARJA99;2019_Nov_25_1544;iat_vr;60.35738816668151;
6;POSITIV;positiv;p;0;6;6;18;p;1;0.6514983000015491;002;ARJA99;2019_Nov_25_1544;iat_vr;60.35738816668151;
6;BAUM;Natur;p;0;7;7;0;p;1;0.8659067999979015;002;ARJA99;2019_Nov_25_1544;iat_vr;60.35738816668151;
6;TIER;Natur;p;0;8;8;3;p;1;0.6650104000000283;002;ARJA99;2019_Nov_25_1544;iat_vr;60.35738816668151;
6;KLEIDER;Gemacht;q;0;9;9;7;p;0;1.0974289999976463;002;ARJA99;2019_Nov_25_1544;iat_vr;60.35738816668151;
6;WASSER;Natur;p;0;10;10;1;p;1;0.8144661999976961;002;ARJA99;2019_Nov_25_1544;iat_vr;60.35738816668151;
6;LAMPE;Gemacht;q;0;11;11;9;q;1;0.6817154999989725;002;ARJA99;2019_Nov_25_1544;iat_vr;60.35738816668151;
6;SCHLIMM;negativ;q;0;12;12;10;q;1;1.031165399999736;002;ARJA99;2019_Nov_25_1544;iat_vr;60.35738816668151;
6;GEBÄUDE;Gemacht;q;0;13;13;5;q;1;0.8808109000019613;002;ARJA99;2019_Nov_25_1544;iat_vr;60.35738816668151;
6;COMPUTER;Gemacht;q;0;14;14;8;q;1;0.5783289999999397;002;ARJA99;2019_Nov_25_1544;iat_vr;60.35738816668151;
6;STADT;Gemacht;q;0;15;15;6;q;1;0.5649137000000337;002;ARJA99;2019_Nov_25_1544;iat_vr;60.35738816668151;
6;AUSGEZEICHNET;positiv;p;0;16;16;15;p;1;0.5252347000023292;002;ARJA99;2019_Nov_25_1544;iat_vr;60.35738816668151;
6;SCHÄDLICH;negativ;q;0;17;17;13;q;1;0.6804214000003412;002;ARJA99;2019_Nov_25_1544;iat_vr;60.35738816668151;
6;STEIN;Natur;p;0;18;18;4;p;1;1.3650841000016953;002;ARJA99;2019_Nov_25_1544;iat_vr;60.35738816668151;
6;EINWANDFREI;positiv;p;0;19;19;16;p;1;1.5618881000009424;002;ARJA99;2019_Nov_25_1544;iat_vr;60.35738816668151;
;;;;;;;;;;;002;ARJA99;2019_Nov_25_1544;iat_vr;60.35738816668151;
7;POSITIV;positiv;p;0;0;0;18;p;1;0.7182834999985062;002;ARJA99;2019_Nov_25_1544;iat_vr;60.35738816668151;
7;WASSER;Natur;p;0;1;1;1;p;1;0.6478444999993371;002;ARJA99;2019_Nov_25_1544;iat_vr;60.35738816668151;
7;NEGATIV;negativ;q;0;2;2;12;q;1;0.6292599000007613;002;ARJA99;2019_Nov_25_1544;iat_vr;60.35738816668151;
7;HERVORRAGEND;positiv;p;0;3;3;17;p;1;0.6805134999995062;002;ARJA99;2019_Nov_25_1544;iat_vr;60.35738816668151;
7;STADT;Gemacht;q;0;4;4;6;q;1;0.8152655000012601;002;ARJA99;2019_Nov_25_1544;iat_vr;60.35738816668151;
7;EINWANDFREI;positiv;p;0;5;5;16;p;1;0.9009263000007195;002;ARJA99;2019_Nov_25_1544;iat_vr;60.35738816668151;
7;AUSGEZEICHNET;positiv;p;0;6;6;15;p;1;0.8544928000010259;002;ARJA99;2019_Nov_25_1544;iat_vr;60.35738816668151;
7;SCHÄDLICH;negativ;q;0;7;7;13;q;1;0.7637512000001152;002;ARJA99;2019_Nov_25_1544;iat_vr;60.35738816668151;
7;SCHLIMM;negativ;q;0;8;8;10;q;1;0.5309629000003042;002;ARJA99;2019_Nov_25_1544;iat_vr;60.35738816668151;
7;KLEIDER;Gemacht;q;0;9;9;7;q;1;0.7796407999994699;002;ARJA99;2019_Nov_25_1544;iat_vr;60.35738816668151;
7;GEBÄUDE;Gemacht;q;0;10;10;5;q;1;0.6641572999978962;002;ARJA99;2019_Nov_25_1544;iat_vr;60.35738816668151;
7;COMPUTER;Gemacht;q;0;11;11;8;q;1;0.6156418999999005;002;ARJA99;2019_Nov_25_1544;iat_vr;60.35738816668151;
7;SCHLECHT;negativ;q;0;12;12;11;q;1;0.5299831000011181;002;ARJA99;2019_Nov_25_1544;iat_vr;60.35738816668151;
7;TIER;Natur;p;0;13;13;3;p;1;0.612646899997344;002;ARJA99;2019_Nov_25_1544;iat_vr;60.35738816668151;
7;STEIN;Natur;p;0;14;14;4;p;1;0.7483596000020043;002;ARJA99;2019_Nov_25_1544;iat_vr;60.35738816668151;
7;BAUM;Natur;p;0;15;15;0;p;1;0.5432129000000714;002;ARJA99;2019_Nov_25_1544;iat_vr;60.35738816668151;
7;LAMPE;Gemacht;q;0;16;16;9;q;1;0.7648308999996516;002;ARJA99;2019_Nov_25_1544;iat_vr;60.35738816668151;
7;GUT;positiv;p;0;17;17;19;p;1;0.5301445000004605;002;ARJA99;2019_Nov_25_1544;iat_vr;60.35738816668151;
7;SCHWACH;negativ;q;0;18;18;14;q;1;0.9990704999981972;002;ARJA99;2019_Nov_25_1544;iat_vr;60.35738816668151;
7;BLUME;Natur;p;0;19;19;2;p;1;0.6486459000007017;002;ARJA99;2019_Nov_25_1544;iat_vr;60.35738816668151;
7;SCHLIMM;negativ;q;1;0;20;10;q;1;0.547340000000986;002;ARJA99;2019_Nov_25_1544;iat_vr;60.35738816668151;
7;SCHWACH;negativ;q;1;1;21;14;q;1;0.6382362000003923;002;ARJA99;2019_Nov_25_1544;iat_vr;60.35738816668151;
7;COMPUTER;Gemacht;q;1;2;22;8;q;1;0.7312439000015729;002;ARJA99;2019_Nov_25_1544;iat_vr;60.35738816668151;
7;WASSER;Natur;p;1;3;23;1;p;1;0.7142075999981898;002;ARJA99;2019_Nov_25_1544;iat_vr;60.35738816668151;
7;BLUME;Natur;p;1;4;24;2;q;0;0.8589255000006233;002;ARJA99;2019_Nov_25_1544;iat_vr;60.35738816668151;
7;LAMPE;Gemacht;q;1;5;25;9;q;1;0.8313228999977582;002;ARJA99;2019_Nov_25_1544;iat_vr;60.35738816668151;
7;GEBÄUDE;Gemacht;q;1;6;26;5;q;1;0.7356777000022703;002;ARJA99;2019_Nov_25_1544;iat_vr;60.35738816668151;
7;KLEIDER;Gemacht;q;1;7;27;7;q;1;0.6323809000023175;002;ARJA99;2019_Nov_25_1544;iat_vr;60.35738816668151;
7;SCHLECHT;negativ;q;1;8;28;11;q;1;0.8130435999992187;002;ARJA99;2019_Nov_25_1544;iat_vr;60.35738816668151;
7;NEGATIV;negativ;q;1;9;29;12;q;1;0.7477169999983744;002;ARJA99;2019_Nov_25_1544;iat_vr;60.35738816668151;
7;STEIN;Natur;p;1;10;30;4;p;1;0.6320177000015974;002;ARJA99;2019_Nov_25_1544;iat_vr;60.35738816668151;
7;TIER;Natur;p;1;11;31;3;p;1;0.6190500000011525;002;ARJA99;2019_Nov_25_1544;iat_vr;60.35738816668151;
7;AUSGEZEICHNET;positiv;p;1;12;32;15;p;1;0.5945848000010301;002;ARJA99;2019_Nov_25_1544;iat_vr;60.35738816668151;
7;HERVORRAGEND;positiv;p;1;13;33;17;p;1;0.6096805999986827;002;ARJA99;2019_Nov_25_1544;iat_vr;60.35738816668151;
7;GUT;positiv;p;1;14;34;19;p;1;0.56579899999997;002;ARJA99;2019_Nov_25_1544;iat_vr;60.35738816668151;
7;POSITIV;positiv;p;1;15;35;18;p;1;0.5475900999990699;002;ARJA99;2019_Nov_25_1544;iat_vr;60.35738816668151;
7;STADT;Gemacht;q;1;16;36;6;q;1;1.697113400001399;002;ARJA99;2019_Nov_25_1544;iat_vr;60.35738816668151;
7;BAUM;Natur;p;1;17;37;0;p;1;1.0488596000031976;002;ARJA99;2019_Nov_25_1544;iat_vr;60.35738816668151;
7;EINWANDFREI;positiv;p;1;18;38;16;p;1;1.2623537999970722;002;ARJA99;2019_Nov_25_1544;iat_vr;60.35738816668151;
7;SCHÄDLICH;negativ;q;1;19;39;13;q;1;0.6620792999965488;002;ARJA99;2019_Nov_25_1544;iat_vr;60.35738816668151;
;;;;;;;;;;;002;ARJA99;2019_Nov_25_1544;iat_vr;60.35738816668151;
