Block;Word;Category;CorrResp;trials.thisRepN;trials.thisTrialN;trials.thisN;trials.thisIndex;key_resp_2.keys;key_resp_2.corr;key_resp_2.rt;session;participant;date;expName;frameRate;
1;LAMPE;Gemacht;p;0;0;0;9;p;1;0.9227107000006072;001;ARSF95;2019_Nov_25_1433;iat_vr;60.024658129085005;
1;KLEIDER;Gemacht;p;0;1;1;7;p;1;0.7550704000022961;001;ARSF95;2019_Nov_25_1433;iat_vr;60.024658129085005;
1;GEBÄUDE;Gemacht;p;0;2;2;5;p;1;0.7349188000007416;001;ARSF95;2019_Nov_25_1433;iat_vr;60.024658129085005;
1;BAUM;Natur;q;0;3;3;0;q;1;0.5985049999981129;001;ARSF95;2019_Nov_25_1433;iat_vr;60.024658129085005;
1;STADT;Gemacht;p;0;4;4;6;p;1;0.5586454999975103;001;ARSF95;2019_Nov_25_1433;iat_vr;60.024658129085005;
1;WASSER;Natur;q;0;5;5;1;q;1;0.6795849999980419;001;ARSF95;2019_Nov_25_1433;iat_vr;60.024658129085005;
1;STEIN;Natur;q;0;6;6;4;q;1;0.5561503999997512;001;ARSF95;2019_Nov_25_1433;iat_vr;60.024658129085005;
1;BLUME;Natur;q;0;7;7;2;q;1;0.5319101000022783;001;ARSF95;2019_Nov_25_1433;iat_vr;60.024658129085005;
1;TIER;Natur;q;0;8;8;3;q;1;0.5484050000013667;001;ARSF95;2019_Nov_25_1433;iat_vr;60.024658129085005;
1;COMPUTER;Gemacht;p;0;9;9;8;p;1;0.5559157000025152;001;ARSF95;2019_Nov_25_1433;iat_vr;60.024658129085005;
1;BAUM;Natur;q;1;0;10;0;q;1;0.5127812999999151;001;ARSF95;2019_Nov_25_1433;iat_vr;60.024658129085005;
1;LAMPE;Gemacht;p;1;1;11;9;p;1;0.9322613000003912;001;ARSF95;2019_Nov_25_1433;iat_vr;60.024658129085005;
1;COMPUTER;Gemacht;p;1;2;12;8;p;1;0.7788378999975976;001;ARSF95;2019_Nov_25_1433;iat_vr;60.024658129085005;
1;GEBÄUDE;Gemacht;p;1;3;13;5;p;1;0.5646574999991572;001;ARSF95;2019_Nov_25_1433;iat_vr;60.024658129085005;
1;STEIN;Natur;q;1;4;14;4;q;1;0.6284551000026113;001;ARSF95;2019_Nov_25_1433;iat_vr;60.024658129085005;
1;TIER;Natur;q;1;5;15;3;q;1;0.582451399997808;001;ARSF95;2019_Nov_25_1433;iat_vr;60.024658129085005;
1;STADT;Gemacht;p;1;6;16;6;p;1;0.5802426000009291;001;ARSF95;2019_Nov_25_1433;iat_vr;60.024658129085005;
1;KLEIDER;Gemacht;p;1;7;17;7;p;1;0.6476045999988855;001;ARSF95;2019_Nov_25_1433;iat_vr;60.024658129085005;
1;BLUME;Natur;q;1;8;18;2;q;1;0.7457945000023756;001;ARSF95;2019_Nov_25_1433;iat_vr;60.024658129085005;
1;WASSER;Natur;q;1;9;19;1;q;1;0.5998719000017445;001;ARSF95;2019_Nov_25_1433;iat_vr;60.024658129085005;
;;;;;;;;;;;001;ARSF95;2019_Nov_25_1433;iat_vr;60.024658129085005;
2;HERVORRAGEND;positiv;p;0;0;0;7;p;1;0.9609998000014457;001;ARSF95;2019_Nov_25_1433;iat_vr;60.024658129085005;
2;GUT;positiv;p;0;1;1;9;p;1;0.683623400000215;001;ARSF95;2019_Nov_25_1433;iat_vr;60.024658129085005;
2;NEGATIV;negativ;q;0;2;2;2;q;1;0.6168334000030882;001;ARSF95;2019_Nov_25_1433;iat_vr;60.024658129085005;
2;AUSGEZEICHNET;positiv;p;0;3;3;5;p;1;0.7170234000004712;001;ARSF95;2019_Nov_25_1433;iat_vr;60.024658129085005;
2;SCHLIMM;negativ;q;0;4;4;0;q;1;0.733326900000975;001;ARSF95;2019_Nov_25_1433;iat_vr;60.024658129085005;
2;EINWANDFREI;positiv;p;0;5;5;6;p;1;0.8340179999977408;001;ARSF95;2019_Nov_25_1433;iat_vr;60.024658129085005;
2;SCHLECHT;negativ;q;0;6;6;1;q;1;0.700316099999327;001;ARSF95;2019_Nov_25_1433;iat_vr;60.024658129085005;
2;SCHWACH;negativ;q;0;7;7;4;q;1;0.7172935000016878;001;ARSF95;2019_Nov_25_1433;iat_vr;60.024658129085005;
2;POSITIV;positiv;p;0;8;8;8;p;1;0.8503748000002815;001;ARSF95;2019_Nov_25_1433;iat_vr;60.024658129085005;
2;SCHÄDLICH;negativ;q;0;9;9;3;q;1;2.033552000000782;001;ARSF95;2019_Nov_25_1433;iat_vr;60.024658129085005;
2;AUSGEZEICHNET;positiv;p;1;0;10;5;p;1;1.5832425000007788;001;ARSF95;2019_Nov_25_1433;iat_vr;60.024658129085005;
2;SCHLECHT;negativ;q;1;1;11;1;q;1;2.500313399999868;001;ARSF95;2019_Nov_25_1433;iat_vr;60.024658129085005;
2;SCHÄDLICH;negativ;q;1;2;12;3;q;1;1.3184249000005366;001;ARSF95;2019_Nov_25_1433;iat_vr;60.024658129085005;
2;SCHWACH;negativ;q;1;3;13;4;q;1;0.7325831000016478;001;ARSF95;2019_Nov_25_1433;iat_vr;60.024658129085005;
2;GUT;positiv;p;1;4;14;9;p;1;0.6339797000000544;001;ARSF95;2019_Nov_25_1433;iat_vr;60.024658129085005;
2;HERVORRAGEND;positiv;p;1;5;15;7;p;1;0.7497856000009051;001;ARSF95;2019_Nov_25_1433;iat_vr;60.024658129085005;
2;EINWANDFREI;positiv;p;1;6;16;6;p;1;0.717273700000078;001;ARSF95;2019_Nov_25_1433;iat_vr;60.024658129085005;
2;NEGATIV;negativ;q;1;7;17;2;q;1;0.7340308999991976;001;ARSF95;2019_Nov_25_1433;iat_vr;60.024658129085005;
2;SCHLIMM;negativ;q;1;8;18;0;q;1;1.9499626999968314;001;ARSF95;2019_Nov_25_1433;iat_vr;60.024658129085005;
2;POSITIV;positiv;p;1;9;19;8;p;1;0.7020142000001215;001;ARSF95;2019_Nov_25_1433;iat_vr;60.024658129085005;
;;;;;;;;;;;001;ARSF95;2019_Nov_25_1433;iat_vr;60.024658129085005;
3;COMPUTER;Gemacht;p;0;0;0;18;p;1;0.8011508000017784;001;ARSF95;2019_Nov_25_1433;iat_vr;60.024658129085005;
3;STEIN;Natur;q;0;1;1;14;q;1;0.850370699998166;001;ARSF95;2019_Nov_25_1433;iat_vr;60.024658129085005;
3;SCHÄDLICH;negativ;q;0;2;2;3;q;1;1.0975195999999414;001;ARSF95;2019_Nov_25_1433;iat_vr;60.024658129085005;
3;NEGATIV;negativ;q;0;3;3;2;q;1;0.9335606999993615;001;ARSF95;2019_Nov_25_1433;iat_vr;60.024658129085005;
3;GEBÄUDE;Gemacht;p;0;4;4;15;p;1;1.3520691000012448;001;ARSF95;2019_Nov_25_1433;iat_vr;60.024658129085005;
3;EINWANDFREI;positiv;p;0;5;5;6;p;1;0.781796100000065;001;ARSF95;2019_Nov_25_1433;iat_vr;60.024658129085005;
3;GUT;positiv;p;0;6;6;9;p;1;0.650796400001127;001;ARSF95;2019_Nov_25_1433;iat_vr;60.024658129085005;
3;STADT;Gemacht;p;0;7;7;16;p;1;0.9504964000007021;001;ARSF95;2019_Nov_25_1433;iat_vr;60.024658129085005;
3;KLEIDER;Gemacht;p;0;8;8;17;p;1;1.0501863000026788;001;ARSF95;2019_Nov_25_1433;iat_vr;60.024658129085005;
3;SCHLIMM;negativ;q;0;9;9;0;q;1;0.6171988999994937;001;ARSF95;2019_Nov_25_1433;iat_vr;60.024658129085005;
3;WASSER;Natur;q;0;10;10;11;q;1;0.6342033000000811;001;ARSF95;2019_Nov_25_1433;iat_vr;60.024658129085005;
3;TIER;Natur;q;0;11;11;13;q;1;0.5501238999968336;001;ARSF95;2019_Nov_25_1433;iat_vr;60.024658129085005;
3;AUSGEZEICHNET;positiv;p;0;12;12;5;p;1;0.8354036999990058;001;ARSF95;2019_Nov_25_1433;iat_vr;60.024658129085005;
3;SCHWACH;negativ;q;0;13;13;4;q;1;0.7652167999985977;001;ARSF95;2019_Nov_25_1433;iat_vr;60.024658129085005;
3;LAMPE;Gemacht;p;0;14;14;19;p;1;0.9519267000032414;001;ARSF95;2019_Nov_25_1433;iat_vr;60.024658129085005;
3;HERVORRAGEND;positiv;p;0;15;15;7;p;1;0.6633503000011842;001;ARSF95;2019_Nov_25_1433;iat_vr;60.024658129085005;
3;BAUM;Natur;q;0;16;16;10;q;1;0.6502351999988605;001;ARSF95;2019_Nov_25_1433;iat_vr;60.024658129085005;
3;BLUME;Natur;q;0;17;17;12;q;1;0.6849857999986853;001;ARSF95;2019_Nov_25_1433;iat_vr;60.024658129085005;
3;POSITIV;positiv;p;0;18;18;8;p;1;0.5792965999971784;001;ARSF95;2019_Nov_25_1433;iat_vr;60.024658129085005;
3;SCHLECHT;negativ;q;0;19;19;1;q;1;0.6179470999995829;001;ARSF95;2019_Nov_25_1433;iat_vr;60.024658129085005;
;;;;;;;;;;;001;ARSF95;2019_Nov_25_1433;iat_vr;60.024658129085005;
4;AUSGEZEICHNET;positiv;p;0;0;0;5;p;1;1.3229097000003094;001;ARSF95;2019_Nov_25_1433;iat_vr;60.024658129085005;
4;STADT;Gemacht;p;0;1;1;16;p;1;2.0171842999989167;001;ARSF95;2019_Nov_25_1433;iat_vr;60.024658129085005;
4;WASSER;Natur;q;0;2;2;11;p;0;0.6339991999993799;001;ARSF95;2019_Nov_25_1433;iat_vr;60.024658129085005;
4;NEGATIV;negativ;q;0;3;3;2;q;1;1.1834269999999378;001;ARSF95;2019_Nov_25_1433;iat_vr;60.024658129085005;
4;SCHLIMM;negativ;q;0;4;4;0;q;1;1.500258699998085;001;ARSF95;2019_Nov_25_1433;iat_vr;60.024658129085005;
4;SCHLECHT;negativ;q;0;5;5;1;q;1;0.8016132999982801;001;ARSF95;2019_Nov_25_1433;iat_vr;60.024658129085005;
4;GEBÄUDE;Gemacht;p;0;6;6;15;p;1;0.7292895999999018;001;ARSF95;2019_Nov_25_1433;iat_vr;60.024658129085005;
4;COMPUTER;Gemacht;p;0;7;7;18;p;1;0.6947806999996828;001;ARSF95;2019_Nov_25_1433;iat_vr;60.024658129085005;
4;GUT;positiv;p;0;8;8;9;p;1;0.6293733999991673;001;ARSF95;2019_Nov_25_1433;iat_vr;60.024658129085005;
4;SCHWACH;negativ;q;0;9;9;4;q;1;0.7005339999996067;001;ARSF95;2019_Nov_25_1433;iat_vr;60.024658129085005;
4;BAUM;Natur;q;0;10;10;10;q;1;0.6840265999999247;001;ARSF95;2019_Nov_25_1433;iat_vr;60.024658129085005;
4;HERVORRAGEND;positiv;p;0;11;11;7;p;1;0.6341078000004927;001;ARSF95;2019_Nov_25_1433;iat_vr;60.024658129085005;
4;LAMPE;Gemacht;p;0;12;12;19;p;1;1.7006223999997019;001;ARSF95;2019_Nov_25_1433;iat_vr;60.024658129085005;
4;POSITIV;positiv;p;0;13;13;8;p;1;0.5166772999982641;001;ARSF95;2019_Nov_25_1433;iat_vr;60.024658129085005;
4;EINWANDFREI;positiv;p;0;14;14;6;p;1;0.6501318999980867;001;ARSF95;2019_Nov_25_1433;iat_vr;60.024658129085005;
4;SCHÄDLICH;negativ;q;0;15;15;3;q;1;0.7673592999999528;001;ARSF95;2019_Nov_25_1433;iat_vr;60.024658129085005;
4;STEIN;Natur;q;0;16;16;14;q;1;0.6184781999982079;001;ARSF95;2019_Nov_25_1433;iat_vr;60.024658129085005;
4;TIER;Natur;q;0;17;17;13;q;1;0.5511313999995764;001;ARSF95;2019_Nov_25_1433;iat_vr;60.024658129085005;
4;BLUME;Natur;q;0;18;18;12;q;1;0.5833348999985901;001;ARSF95;2019_Nov_25_1433;iat_vr;60.024658129085005;
4;KLEIDER;Gemacht;p;0;19;19;17;p;1;0.6337301999992633;001;ARSF95;2019_Nov_25_1433;iat_vr;60.024658129085005;
4;SCHLECHT;negativ;q;1;0;20;1;q;1;0.6504535999993095;001;ARSF95;2019_Nov_25_1433;iat_vr;60.024658129085005;
4;BAUM;Natur;q;1;1;21;10;q;1;0.6179788999979792;001;ARSF95;2019_Nov_25_1433;iat_vr;60.024658129085005;
4;SCHLIMM;negativ;q;1;2;22;0;q;1;0.5810223999978916;001;ARSF95;2019_Nov_25_1433;iat_vr;60.024658129085005;
4;WASSER;Natur;q;1;3;23;11;q;1;1.094819699999789;001;ARSF95;2019_Nov_25_1433;iat_vr;60.024658129085005;
4;LAMPE;Gemacht;p;1;4;24;19;p;1;0.6337630999987596;001;ARSF95;2019_Nov_25_1433;iat_vr;60.024658129085005;
4;EINWANDFREI;positiv;p;1;5;25;6;p;1;0.7279675000027055;001;ARSF95;2019_Nov_25_1433;iat_vr;60.024658129085005;
4;SCHWACH;negativ;q;1;6;26;4;q;1;0.6515933000009682;001;ARSF95;2019_Nov_25_1433;iat_vr;60.024658129085005;
4;GUT;positiv;p;1;7;27;9;p;1;0.5810068999999203;001;ARSF95;2019_Nov_25_1433;iat_vr;60.024658129085005;
4;AUSGEZEICHNET;positiv;p;1;8;28;5;p;1;0.6413382000027923;001;ARSF95;2019_Nov_25_1433;iat_vr;60.024658129085005;
4;GEBÄUDE;Gemacht;p;1;9;29;15;p;1;0.641996599999402;001;ARSF95;2019_Nov_25_1433;iat_vr;60.024658129085005;
4;HERVORRAGEND;positiv;p;1;10;30;7;p;1;0.9989816000015708;001;ARSF95;2019_Nov_25_1433;iat_vr;60.024658129085005;
4;SCHÄDLICH;negativ;q;1;11;31;3;q;1;0.6504774000022735;001;ARSF95;2019_Nov_25_1433;iat_vr;60.024658129085005;
4;STADT;Gemacht;p;1;12;32;16;p;1;1.1004689000001235;001;ARSF95;2019_Nov_25_1433;iat_vr;60.024658129085005;
4;KLEIDER;Gemacht;p;1;13;33;17;p;1;1.0334717000005185;001;ARSF95;2019_Nov_25_1433;iat_vr;60.024658129085005;
4;STEIN;Natur;q;1;14;34;14;q;1;0.7001319000009971;001;ARSF95;2019_Nov_25_1433;iat_vr;60.024658129085005;
4;NEGATIV;negativ;q;1;15;35;2;q;1;0.5504312000011851;001;ARSF95;2019_Nov_25_1433;iat_vr;60.024658129085005;
4;COMPUTER;Gemacht;p;1;16;36;18;p;1;0.5674230999975407;001;ARSF95;2019_Nov_25_1433;iat_vr;60.024658129085005;
4;TIER;Natur;q;1;17;37;13;q;1;0.5836569000020972;001;ARSF95;2019_Nov_25_1433;iat_vr;60.024658129085005;
4;BLUME;Natur;q;1;18;38;12;q;1;0.5835887000030198;001;ARSF95;2019_Nov_25_1433;iat_vr;60.024658129085005;
4;POSITIV;positiv;p;1;19;39;8;p;1;0.5669391000010364;001;ARSF95;2019_Nov_25_1433;iat_vr;60.024658129085005;
;;;;;;;;;;;001;ARSF95;2019_Nov_25_1433;iat_vr;60.024658129085005;
5;WASSER;Natur;p;0;0;0;1;p;1;1.380013099998905;001;ARSF95;2019_Nov_25_1433;iat_vr;60.024658129085005;
5;TIER;Natur;p;0;1;1;3;p;1;0.5484614999986661;001;ARSF95;2019_Nov_25_1433;iat_vr;60.024658129085005;
5;STEIN;Natur;p;0;2;2;4;p;1;0.5978394000012486;001;ARSF95;2019_Nov_25_1433;iat_vr;60.024658129085005;
5;GEBÄUDE;Gemacht;q;0;3;3;5;q;1;0.514723000000231;001;ARSF95;2019_Nov_25_1433;iat_vr;60.024658129085005;
5;BAUM;Natur;p;0;4;4;0;p;1;0.7657740000031481;001;ARSF95;2019_Nov_25_1433;iat_vr;60.024658129085005;
5;BLUME;Natur;p;0;5;5;2;q;0;0.8320878000013181;001;ARSF95;2019_Nov_25_1433;iat_vr;60.024658129085005;
5;KLEIDER;Gemacht;q;0;6;6;7;q;1;1.098544899999979;001;ARSF95;2019_Nov_25_1433;iat_vr;60.024658129085005;
5;STADT;Gemacht;q;0;7;7;6;q;1;1.250165699999343;001;ARSF95;2019_Nov_25_1433;iat_vr;60.024658129085005;
5;LAMPE;Gemacht;q;0;8;8;9;q;1;0.5974986000001081;001;ARSF95;2019_Nov_25_1433;iat_vr;60.024658129085005;
5;COMPUTER;Gemacht;q;0;9;9;8;q;1;0.6297073999994609;001;ARSF95;2019_Nov_25_1433;iat_vr;60.024658129085005;
5;STEIN;Natur;p;1;0;10;4;p;1;0.6150215999987267;001;ARSF95;2019_Nov_25_1433;iat_vr;60.024658129085005;
5;KLEIDER;Gemacht;q;1;1;11;7;q;1;0.9469024000027275;001;ARSF95;2019_Nov_25_1433;iat_vr;60.024658129085005;
5;GEBÄUDE;Gemacht;q;1;2;12;5;q;1;0.66387869999744;001;ARSF95;2019_Nov_25_1433;iat_vr;60.024658129085005;
5;TIER;Natur;p;1;3;13;3;p;1;0.6820470000020578;001;ARSF95;2019_Nov_25_1433;iat_vr;60.024658129085005;
5;BAUM;Natur;p;1;4;14;0;p;1;0.565506999999343;001;ARSF95;2019_Nov_25_1433;iat_vr;60.024658129085005;
5;WASSER;Natur;p;1;5;15;1;p;1;0.541633400000137;001;ARSF95;2019_Nov_25_1433;iat_vr;60.024658129085005;
5;COMPUTER;Gemacht;q;1;6;16;8;q;1;0.5981567999988329;001;ARSF95;2019_Nov_25_1433;iat_vr;60.024658129085005;
5;LAMPE;Gemacht;q;1;7;17;9;q;1;0.6305618000005779;001;ARSF95;2019_Nov_25_1433;iat_vr;60.024658129085005;
5;STADT;Gemacht;q;1;8;18;6;q;1;0.8645648999990954;001;ARSF95;2019_Nov_25_1433;iat_vr;60.024658129085005;
5;BLUME;Natur;p;1;9;19;2;p;1;0.5987779000024602;001;ARSF95;2019_Nov_25_1433;iat_vr;60.024658129085005;
;;;;;;;;;;;001;ARSF95;2019_Nov_25_1433;iat_vr;60.024658129085005;
6;SCHÄDLICH;negativ;q;0;0;0;13;p;0;0.7042662999992899;001;ARSF95;2019_Nov_25_1433;iat_vr;60.024658129085005;
6;AUSGEZEICHNET;positiv;p;0;1;1;15;p;1;1.5615878999997221;001;ARSF95;2019_Nov_25_1433;iat_vr;60.024658129085005;
6;SCHWACH;negativ;q;0;2;2;14;q;1;0.7099022999973386;001;ARSF95;2019_Nov_25_1433;iat_vr;60.024658129085005;
6;HERVORRAGEND;positiv;p;0;3;3;17;p;1;1.329703299998073;001;ARSF95;2019_Nov_25_1433;iat_vr;60.024658129085005;
6;LAMPE;Gemacht;q;0;4;4;9;q;1;2.113657300000341;001;ARSF95;2019_Nov_25_1433;iat_vr;60.024658129085005;
6;TIER;Natur;p;0;5;5;3;p;1;0.8146845000010217;001;ARSF95;2019_Nov_25_1433;iat_vr;60.024658129085005;
6;BAUM;Natur;p;0;6;6;0;p;1;0.6645247000014933;001;ARSF95;2019_Nov_25_1433;iat_vr;60.024658129085005;
6;SCHLECHT;negativ;q;0;7;7;11;p;0;0.9305470999970566;001;ARSF95;2019_Nov_25_1433;iat_vr;60.024658129085005;
6;SCHLIMM;negativ;q;0;8;8;10;q;1;0.8477294000003894;001;ARSF95;2019_Nov_25_1433;iat_vr;60.024658129085005;
6;GEBÄUDE;Gemacht;q;0;9;9;5;p;0;1.2648404999999912;001;ARSF95;2019_Nov_25_1433;iat_vr;60.024658129085005;
6;GUT;positiv;p;0;10;10;19;q;0;1.0667036000013468;001;ARSF95;2019_Nov_25_1433;iat_vr;60.024658129085005;
6;EINWANDFREI;positiv;p;0;11;11;16;p;1;1.3814978999980667;001;ARSF95;2019_Nov_25_1433;iat_vr;60.024658129085005;
6;COMPUTER;Gemacht;q;0;12;12;8;p;0;1.1307879999985744;001;ARSF95;2019_Nov_25_1433;iat_vr;60.024658129085005;
6;POSITIV;positiv;p;0;13;13;18;p;1;0.8955444999992324;001;ARSF95;2019_Nov_25_1433;iat_vr;60.024658129085005;
6;KLEIDER;Gemacht;q;0;14;14;7;q;1;0.8793087999983982;001;ARSF95;2019_Nov_25_1433;iat_vr;60.024658129085005;
6;NEGATIV;negativ;q;0;15;15;12;q;1;0.8559320000022126;001;ARSF95;2019_Nov_25_1433;iat_vr;60.024658129085005;
6;STADT;Gemacht;q;0;16;16;6;q;1;0.637789000000339;001;ARSF95;2019_Nov_25_1433;iat_vr;60.024658129085005;
6;WASSER;Natur;p;0;17;17;1;p;1;2.6654168999994;001;ARSF95;2019_Nov_25_1433;iat_vr;60.024658129085005;
6;STEIN;Natur;p;0;18;18;4;p;1;0.7141360999994504;001;ARSF95;2019_Nov_25_1433;iat_vr;60.024658129085005;
6;BLUME;Natur;p;0;19;19;2;p;1;0.5293138999986695;001;ARSF95;2019_Nov_25_1433;iat_vr;60.024658129085005;
;;;;;;;;;;;001;ARSF95;2019_Nov_25_1433;iat_vr;60.024658129085005;
7;GEBÄUDE;Gemacht;q;0;0;0;5;q;1;0.7996566999972856;001;ARSF95;2019_Nov_25_1433;iat_vr;60.024658129085005;
7;GUT;positiv;p;0;1;1;19;p;1;1.3162064000025566;001;ARSF95;2019_Nov_25_1433;iat_vr;60.024658129085005;
7;NEGATIV;negativ;q;0;2;2;12;q;1;0.7644881999985955;001;ARSF95;2019_Nov_25_1433;iat_vr;60.024658129085005;
7;COMPUTER;Gemacht;q;0;3;3;8;q;1;0.7473721999995178;001;ARSF95;2019_Nov_25_1433;iat_vr;60.024658129085005;
7;SCHWACH;negativ;q;0;4;4;14;q;1;0.7914597999988473;001;ARSF95;2019_Nov_25_1433;iat_vr;60.024658129085005;
7;EINWANDFREI;positiv;p;0;5;5;16;p;1;0.7300603000003321;001;ARSF95;2019_Nov_25_1433;iat_vr;60.024658129085005;
7;SCHLIMM;negativ;q;0;6;6;10;q;1;0.9804254000009678;001;ARSF95;2019_Nov_25_1433;iat_vr;60.024658129085005;
7;POSITIV;positiv;p;0;7;7;18;p;1;0.710779500001081;001;ARSF95;2019_Nov_25_1433;iat_vr;60.024658129085005;
7;STEIN;Natur;p;0;8;8;4;p;1;0.8590170000024955;001;ARSF95;2019_Nov_25_1433;iat_vr;60.024658129085005;
7;WASSER;Natur;p;0;9;9;1;p;1;0.6364223000018683;001;ARSF95;2019_Nov_25_1433;iat_vr;60.024658129085005;
7;STADT;Gemacht;q;0;10;10;6;q;1;0.7460566000008839;001;ARSF95;2019_Nov_25_1433;iat_vr;60.024658129085005;
7;KLEIDER;Gemacht;q;0;11;11;7;q;1;0.7633615999984613;001;ARSF95;2019_Nov_25_1433;iat_vr;60.024658129085005;
7;BLUME;Natur;p;0;12;12;2;q;0;0.59834150000097;001;ARSF95;2019_Nov_25_1433;iat_vr;60.024658129085005;
7;HERVORRAGEND;positiv;p;0;13;13;17;p;1;0.8785655000028783;001;ARSF95;2019_Nov_25_1433;iat_vr;60.024658129085005;
7;TIER;Natur;p;0;14;14;3;p;1;0.6820380999997724;001;ARSF95;2019_Nov_25_1433;iat_vr;60.024658129085005;
7;AUSGEZEICHNET;positiv;p;0;15;15;15;p;1;0.6617881000020134;001;ARSF95;2019_Nov_25_1433;iat_vr;60.024658129085005;
7;LAMPE;Gemacht;q;0;16;16;9;q;1;0.9130213000025833;001;ARSF95;2019_Nov_25_1433;iat_vr;60.024658129085005;
7;BAUM;Natur;p;0;17;17;0;p;1;0.6978515000009793;001;ARSF95;2019_Nov_25_1433;iat_vr;60.024658129085005;
7;SCHÄDLICH;negativ;q;0;18;18;13;q;1;1.1151334999995015;001;ARSF95;2019_Nov_25_1433;iat_vr;60.024658129085005;
7;SCHLECHT;negativ;q;0;19;19;11;q;1;0.611735000002227;001;ARSF95;2019_Nov_25_1433;iat_vr;60.024658129085005;
7;BAUM;Natur;p;1;0;20;0;p;1;0.698672099999385;001;ARSF95;2019_Nov_25_1433;iat_vr;60.024658129085005;
7;NEGATIV;negativ;q;1;1;21;12;q;1;2.947411600001942;001;ARSF95;2019_Nov_25_1433;iat_vr;60.024658129085005;
7;SCHLIMM;negativ;q;1;2;22;10;q;1;0.5789683000002697;001;ARSF95;2019_Nov_25_1433;iat_vr;60.024658129085005;
7;TIER;Natur;p;1;3;23;3;p;1;0.6808621999989555;001;ARSF95;2019_Nov_25_1433;iat_vr;60.024658129085005;
7;KLEIDER;Gemacht;q;1;4;24;7;q;1;1.1303029999980936;001;ARSF95;2019_Nov_25_1433;iat_vr;60.024658129085005;
7;COMPUTER;Gemacht;q;1;5;25;8;q;1;0.897944299998926;001;ARSF95;2019_Nov_25_1433;iat_vr;60.024658129085005;
7;POSITIV;positiv;p;1;6;26;18;p;1;0.8150650999996287;001;ARSF95;2019_Nov_25_1433;iat_vr;60.024658129085005;
7;SCHLECHT;negativ;q;1;7;27;11;q;1;0.996979099996679;001;ARSF95;2019_Nov_25_1433;iat_vr;60.024658129085005;
7;BLUME;Natur;p;1;8;28;2;p;1;0.7159935000017867;001;ARSF95;2019_Nov_25_1433;iat_vr;60.024658129085005;
7;LAMPE;Gemacht;q;1;9;29;9;q;1;0.630796299999929;001;ARSF95;2019_Nov_25_1433;iat_vr;60.024658129085005;
7;STADT;Gemacht;q;1;10;30;6;q;1;0.6988915000001725;001;ARSF95;2019_Nov_25_1433;iat_vr;60.024658129085005;
7;GUT;positiv;p;1;11;31;19;q;0;0.7651961999981722;001;ARSF95;2019_Nov_25_1433;iat_vr;60.024658129085005;
7;STEIN;Natur;p;1;12;32;4;p;1;3.3149847999993654;001;ARSF95;2019_Nov_25_1433;iat_vr;60.024658129085005;
7;EINWANDFREI;positiv;p;1;13;33;16;p;1;0.778656200000114;001;ARSF95;2019_Nov_25_1433;iat_vr;60.024658129085005;
7;AUSGEZEICHNET;positiv;p;1;14;34;15;p;1;0.7578021000008448;001;ARSF95;2019_Nov_25_1433;iat_vr;60.024658129085005;
7;HERVORRAGEND;positiv;p;1;15;35;17;p;1;0.5617344999991474;001;ARSF95;2019_Nov_25_1433;iat_vr;60.024658129085005;
7;WASSER;Natur;p;1;16;36;1;p;1;0.7091294999991078;001;ARSF95;2019_Nov_25_1433;iat_vr;60.024658129085005;
7;SCHWACH;negativ;q;1;17;37;14;q;1;0.900196099999448;001;ARSF95;2019_Nov_25_1433;iat_vr;60.024658129085005;
7;SCHÄDLICH;negativ;q;1;18;38;13;q;1;0.7336818000003404;001;ARSF95;2019_Nov_25_1433;iat_vr;60.024658129085005;
7;GEBÄUDE;Gemacht;q;1;19;39;5;q;1;0.667056500002218;001;ARSF95;2019_Nov_25_1433;iat_vr;60.024658129085005;
;;;;;;;;;;;001;ARSF95;2019_Nov_25_1433;iat_vr;60.024658129085005;
