Block;Word;Category;CorrResp;trials.thisRepN;trials.thisTrialN;trials.thisN;trials.thisIndex;key_resp_2.keys;key_resp_2.corr;key_resp_2.rt;session;participant;date;expName;frameRate;
1;WASSER;Natur;q;0;0;0;1;q;1;0.6695477000002938;002;ARSW00;2019_Nov_26_1035;iat_vr;60.082072110309134;
1;GEBÄUDE;Gemacht;p;0;1;1;5;p;1;0.6150779999998122;002;ARSW00;2019_Nov_26_1035;iat_vr;60.082072110309134;
1;TIER;Natur;q;0;2;2;3;q;1;0.6133911999995689;002;ARSW00;2019_Nov_26_1035;iat_vr;60.082072110309134;
1;BLUME;Natur;q;0;3;3;2;q;1;0.5534832000003007;002;ARSW00;2019_Nov_26_1035;iat_vr;60.082072110309134;
1;KLEIDER;Gemacht;p;0;4;4;7;p;1;0.5524179000003642;002;ARSW00;2019_Nov_26_1035;iat_vr;60.082072110309134;
1;STEIN;Natur;q;0;5;5;4;p;0;0.49400409999998374;002;ARSW00;2019_Nov_26_1035;iat_vr;60.082072110309134;
1;STADT;Gemacht;p;0;6;6;6;p;1;0.6832862999999634;002;ARSW00;2019_Nov_26_1035;iat_vr;60.082072110309134;
1;COMPUTER;Gemacht;p;0;7;7;8;p;1;0.6584148000001733;002;ARSW00;2019_Nov_26_1035;iat_vr;60.082072110309134;
1;LAMPE;Gemacht;p;0;8;8;9;p;1;0.6514122000007774;002;ARSW00;2019_Nov_26_1035;iat_vr;60.082072110309134;
1;BAUM;Natur;q;0;9;9;0;q;1;0.9658985000005487;002;ARSW00;2019_Nov_26_1035;iat_vr;60.082072110309134;
1;TIER;Natur;q;1;0;10;3;q;1;0.5986690999998245;002;ARSW00;2019_Nov_26_1035;iat_vr;60.082072110309134;
1;LAMPE;Gemacht;p;1;1;11;9;p;1;0.6135525000008784;002;ARSW00;2019_Nov_26_1035;iat_vr;60.082072110309134;
1;KLEIDER;Gemacht;p;1;2;12;7;p;1;1.0326792000005298;002;ARSW00;2019_Nov_26_1035;iat_vr;60.082072110309134;
1;COMPUTER;Gemacht;p;1;3;13;8;p;1;0.5317488999999114;002;ARSW00;2019_Nov_26_1035;iat_vr;60.082072110309134;
1;WASSER;Natur;q;1;4;14;1;q;1;0.5630533000003197;002;ARSW00;2019_Nov_26_1035;iat_vr;60.082072110309134;
1;GEBÄUDE;Gemacht;p;1;5;15;5;p;1;0.5641696999991836;002;ARSW00;2019_Nov_26_1035;iat_vr;60.082072110309134;
1;BAUM;Natur;q;1;6;16;0;q;1;0.5846358000007967;002;ARSW00;2019_Nov_26_1035;iat_vr;60.082072110309134;
1;STADT;Gemacht;p;1;7;17;6;p;1;0.5519356999993761;002;ARSW00;2019_Nov_26_1035;iat_vr;60.082072110309134;
1;BLUME;Natur;q;1;8;18;2;q;1;0.6129167000008238;002;ARSW00;2019_Nov_26_1035;iat_vr;60.082072110309134;
1;STEIN;Natur;q;1;9;19;4;q;1;0.6828032999992502;002;ARSW00;2019_Nov_26_1035;iat_vr;60.082072110309134;
;;;;;;;;;;;002;ARSW00;2019_Nov_26_1035;iat_vr;60.082072110309134;
2;GUT;positiv;p;0;0;0;9;p;1;0.814337599999817;002;ARSW00;2019_Nov_26_1035;iat_vr;60.082072110309134;
2;SCHLECHT;negativ;q;0;1;1;1;q;1;0.579385000000002;002;ARSW00;2019_Nov_26_1035;iat_vr;60.082072110309134;
2;SCHÄDLICH;negativ;q;0;2;2;3;q;1;0.5015468999999939;002;ARSW00;2019_Nov_26_1035;iat_vr;60.082072110309134;
2;EINWANDFREI;positiv;p;0;3;3;6;p;1;0.5949329000004582;002;ARSW00;2019_Nov_26_1035;iat_vr;60.082072110309134;
2;HERVORRAGEND;positiv;p;0;4;4;7;p;1;0.4983996999999363;002;ARSW00;2019_Nov_26_1035;iat_vr;60.082072110309134;
2;POSITIV;positiv;p;0;5;5;8;p;1;0.4995795000004364;002;ARSW00;2019_Nov_26_1035;iat_vr;60.082072110309134;
2;AUSGEZEICHNET;positiv;p;0;6;6;5;p;1;0.4860717999999906;002;ARSW00;2019_Nov_26_1035;iat_vr;60.082072110309134;
2;SCHWACH;negativ;q;0;7;7;4;q;1;0.5356529999999111;002;ARSW00;2019_Nov_26_1035;iat_vr;60.082072110309134;
2;SCHLIMM;negativ;q;0;8;8;0;q;1;0.48364089999995485;002;ARSW00;2019_Nov_26_1035;iat_vr;60.082072110309134;
2;NEGATIV;negativ;q;0;9;9;2;p;0;0.4689616000005117;002;ARSW00;2019_Nov_26_1035;iat_vr;60.082072110309134;
2;SCHÄDLICH;negativ;q;1;0;10;3;q;1;0.5268949999999677;002;ARSW00;2019_Nov_26_1035;iat_vr;60.082072110309134;
2;GUT;positiv;p;1;1;11;9;p;1;0.6500172999994902;002;ARSW00;2019_Nov_26_1035;iat_vr;60.082072110309134;
2;AUSGEZEICHNET;positiv;p;1;2;12;5;p;1;0.4921950999996625;002;ARSW00;2019_Nov_26_1035;iat_vr;60.082072110309134;
2;POSITIV;positiv;p;1;3;13;8;p;1;0.4813687999994727;002;ARSW00;2019_Nov_26_1035;iat_vr;60.082072110309134;
2;SCHLIMM;negativ;q;1;4;14;0;q;1;0.5349244999997609;002;ARSW00;2019_Nov_26_1035;iat_vr;60.082072110309134;
2;SCHLECHT;negativ;q;1;5;15;1;q;1;0.5766813999998703;002;ARSW00;2019_Nov_26_1035;iat_vr;60.082072110309134;
2;HERVORRAGEND;positiv;p;1;6;16;7;p;1;0.5455179999999018;002;ARSW00;2019_Nov_26_1035;iat_vr;60.082072110309134;
2;EINWANDFREI;positiv;p;1;7;17;6;p;1;0.5358905000002778;002;ARSW00;2019_Nov_26_1035;iat_vr;60.082072110309134;
2;SCHWACH;negativ;q;1;8;18;4;q;1;0.7753709999997227;002;ARSW00;2019_Nov_26_1035;iat_vr;60.082072110309134;
2;NEGATIV;negativ;q;1;9;19;2;q;1;0.6351598999999624;002;ARSW00;2019_Nov_26_1035;iat_vr;60.082072110309134;
;;;;;;;;;;;002;ARSW00;2019_Nov_26_1035;iat_vr;60.082072110309134;
3;GEBÄUDE;Gemacht;p;0;0;0;15;p;1;0.7412336999996114;002;ARSW00;2019_Nov_26_1035;iat_vr;60.082072110309134;
3;WASSER;Natur;q;0;1;1;11;p;0;0.5505339999999705;002;ARSW00;2019_Nov_26_1035;iat_vr;60.082072110309134;
3;SCHLECHT;negativ;q;0;2;2;1;q;1;1.762010399999781;002;ARSW00;2019_Nov_26_1035;iat_vr;60.082072110309134;
3;AUSGEZEICHNET;positiv;p;0;3;3;5;p;1;0.7272916000001715;002;ARSW00;2019_Nov_26_1035;iat_vr;60.082072110309134;
3;STADT;Gemacht;p;0;4;4;16;p;1;1.1336882999994486;002;ARSW00;2019_Nov_26_1035;iat_vr;60.082072110309134;
3;NEGATIV;negativ;q;0;5;5;2;q;1;0.6979067000002033;002;ARSW00;2019_Nov_26_1035;iat_vr;60.082072110309134;
3;BAUM;Natur;q;0;6;6;10;q;1;0.6349718000001303;002;ARSW00;2019_Nov_26_1035;iat_vr;60.082072110309134;
3;STEIN;Natur;q;0;7;7;14;q;1;0.6150618000001487;002;ARSW00;2019_Nov_26_1035;iat_vr;60.082072110309134;
3;TIER;Natur;q;0;8;8;13;q;1;0.6483046000003014;002;ARSW00;2019_Nov_26_1035;iat_vr;60.082072110309134;
3;GUT;positiv;p;0;9;9;9;p;1;1.0493772999998328;002;ARSW00;2019_Nov_26_1035;iat_vr;60.082072110309134;
3;KLEIDER;Gemacht;p;0;10;10;17;p;1;0.635241699999824;002;ARSW00;2019_Nov_26_1035;iat_vr;60.082072110309134;
3;SCHLIMM;negativ;q;0;11;11;0;q;1;0.7493516000004092;002;ARSW00;2019_Nov_26_1035;iat_vr;60.082072110309134;
3;EINWANDFREI;positiv;p;0;12;12;6;p;1;0.7268073999994158;002;ARSW00;2019_Nov_26_1035;iat_vr;60.082072110309134;
3;SCHÄDLICH;negativ;q;0;13;13;3;q;1;0.6935626000004049;002;ARSW00;2019_Nov_26_1035;iat_vr;60.082072110309134;
3;POSITIV;positiv;p;0;14;14;8;p;1;0.7006645000001299;002;ARSW00;2019_Nov_26_1035;iat_vr;60.082072110309134;
3;LAMPE;Gemacht;p;0;15;15;19;q;0;1.0354472999997597;002;ARSW00;2019_Nov_26_1035;iat_vr;60.082072110309134;
3;SCHWACH;negativ;q;0;16;16;4;p;0;0.2783445999994001;002;ARSW00;2019_Nov_26_1035;iat_vr;60.082072110309134;
3;COMPUTER;Gemacht;p;0;17;17;18;p;1;0.9796367999997528;002;ARSW00;2019_Nov_26_1035;iat_vr;60.082072110309134;
3;HERVORRAGEND;positiv;p;0;18;18;7;p;1;1.7422772999998415;002;ARSW00;2019_Nov_26_1035;iat_vr;60.082072110309134;
3;BLUME;Natur;q;0;19;19;12;q;1;0.8023358000000371;002;ARSW00;2019_Nov_26_1035;iat_vr;60.082072110309134;
;;;;;;;;;;;002;ARSW00;2019_Nov_26_1035;iat_vr;60.082072110309134;
4;TIER;Natur;q;0;0;0;13;q;1;0.8532257999995636;002;ARSW00;2019_Nov_26_1035;iat_vr;60.082072110309134;
4;NEGATIV;negativ;q;0;1;1;2;q;1;0.9812800999998217;002;ARSW00;2019_Nov_26_1035;iat_vr;60.082072110309134;
4;EINWANDFREI;positiv;p;0;2;2;6;p;1;0.7074228000001312;002;ARSW00;2019_Nov_26_1035;iat_vr;60.082072110309134;
4;SCHLECHT;negativ;q;0;3;3;1;q;1;1.2975751999993008;002;ARSW00;2019_Nov_26_1035;iat_vr;60.082072110309134;
4;BLUME;Natur;q;0;4;4;12;q;1;0.6481621000002633;002;ARSW00;2019_Nov_26_1035;iat_vr;60.082072110309134;
4;WASSER;Natur;q;0;5;5;11;q;1;1.230700600000091;002;ARSW00;2019_Nov_26_1035;iat_vr;60.082072110309134;
4;HERVORRAGEND;positiv;p;0;6;6;7;p;1;0.5959736999993765;002;ARSW00;2019_Nov_26_1035;iat_vr;60.082072110309134;
4;BAUM;Natur;q;0;7;7;10;q;1;0.8319367000003695;002;ARSW00;2019_Nov_26_1035;iat_vr;60.082072110309134;
4;STEIN;Natur;q;0;8;8;14;q;1;0.863663699999961;002;ARSW00;2019_Nov_26_1035;iat_vr;60.082072110309134;
4;COMPUTER;Gemacht;p;0;9;9;18;p;1;0.7021819000001415;002;ARSW00;2019_Nov_26_1035;iat_vr;60.082072110309134;
4;SCHÄDLICH;negativ;q;0;10;10;3;q;1;0.8014504000002489;002;ARSW00;2019_Nov_26_1035;iat_vr;60.082072110309134;
4;POSITIV;positiv;p;0;11;11;8;p;1;0.7309102999997776;002;ARSW00;2019_Nov_26_1035;iat_vr;60.082072110309134;
4;GUT;positiv;p;0;12;12;9;p;1;0.7969901999995272;002;ARSW00;2019_Nov_26_1035;iat_vr;60.082072110309134;
4;SCHLIMM;negativ;q;0;13;13;0;q;1;0.7342153999998118;002;ARSW00;2019_Nov_26_1035;iat_vr;60.082072110309134;
4;GEBÄUDE;Gemacht;p;0;14;14;15;p;1;0.9136474999995698;002;ARSW00;2019_Nov_26_1035;iat_vr;60.082072110309134;
4;SCHWACH;negativ;q;0;15;15;4;q;1;1.2336549999999988;002;ARSW00;2019_Nov_26_1035;iat_vr;60.082072110309134;
4;KLEIDER;Gemacht;p;0;16;16;17;p;1;0.7787297999993825;002;ARSW00;2019_Nov_26_1035;iat_vr;60.082072110309134;
4;AUSGEZEICHNET;positiv;p;0;17;17;5;p;1;0.7425916000001962;002;ARSW00;2019_Nov_26_1035;iat_vr;60.082072110309134;
4;STADT;Gemacht;p;0;18;18;16;p;1;0.749826999999641;002;ARSW00;2019_Nov_26_1035;iat_vr;60.082072110309134;
4;LAMPE;Gemacht;p;0;19;19;19;p;1;1.064777000000504;002;ARSW00;2019_Nov_26_1035;iat_vr;60.082072110309134;
4;SCHLIMM;negativ;q;1;0;20;0;q;1;1.097657999999683;002;ARSW00;2019_Nov_26_1035;iat_vr;60.082072110309134;
4;STADT;Gemacht;p;1;1;21;16;p;1;0.7646844000000783;002;ARSW00;2019_Nov_26_1035;iat_vr;60.082072110309134;
4;TIER;Natur;q;1;2;22;13;q;1;0.8293100999999297;002;ARSW00;2019_Nov_26_1035;iat_vr;60.082072110309134;
4;BLUME;Natur;q;1;3;23;12;q;1;0.5853801000002932;002;ARSW00;2019_Nov_26_1035;iat_vr;60.082072110309134;
4;AUSGEZEICHNET;positiv;p;1;4;24;5;p;1;0.5992399999995541;002;ARSW00;2019_Nov_26_1035;iat_vr;60.082072110309134;
4;GUT;positiv;p;1;5;25;9;p;1;0.5824868999998216;002;ARSW00;2019_Nov_26_1035;iat_vr;60.082072110309134;
4;POSITIV;positiv;p;1;6;26;8;p;1;0.5972799999999552;002;ARSW00;2019_Nov_26_1035;iat_vr;60.082072110309134;
4;KLEIDER;Gemacht;p;1;7;27;17;p;1;0.6349824999997509;002;ARSW00;2019_Nov_26_1035;iat_vr;60.082072110309134;
4;STEIN;Natur;q;1;8;28;14;q;1;0.6639799000004132;002;ARSW00;2019_Nov_26_1035;iat_vr;60.082072110309134;
4;HERVORRAGEND;positiv;p;1;9;29;7;p;1;0.6106948000006014;002;ARSW00;2019_Nov_26_1035;iat_vr;60.082072110309134;
4;SCHLECHT;negativ;q;1;10;30;1;q;1;0.5957031999996616;002;ARSW00;2019_Nov_26_1035;iat_vr;60.082072110309134;
4;EINWANDFREI;positiv;p;1;11;31;6;p;1;0.7593231999999261;002;ARSW00;2019_Nov_26_1035;iat_vr;60.082072110309134;
4;COMPUTER;Gemacht;p;1;12;32;18;p;1;1.3442807999999786;002;ARSW00;2019_Nov_26_1035;iat_vr;60.082072110309134;
4;SCHWACH;negativ;q;1;13;33;4;q;1;0.8827192999997351;002;ARSW00;2019_Nov_26_1035;iat_vr;60.082072110309134;
4;BAUM;Natur;q;1;14;34;10;q;1;0.6691797999992559;002;ARSW00;2019_Nov_26_1035;iat_vr;60.082072110309134;
4;SCHÄDLICH;negativ;q;1;15;35;3;q;1;0.6249643999999535;002;ARSW00;2019_Nov_26_1035;iat_vr;60.082072110309134;
4;NEGATIV;negativ;q;1;16;36;2;q;1;1.2154631000003064;002;ARSW00;2019_Nov_26_1035;iat_vr;60.082072110309134;
4;LAMPE;Gemacht;p;1;17;37;19;p;1;0.631976300000133;002;ARSW00;2019_Nov_26_1035;iat_vr;60.082072110309134;
4;GEBÄUDE;Gemacht;p;1;18;38;15;p;1;0.645215300000018;002;ARSW00;2019_Nov_26_1035;iat_vr;60.082072110309134;
4;WASSER;Natur;q;1;19;39;11;q;1;0.6816944999991392;002;ARSW00;2019_Nov_26_1035;iat_vr;60.082072110309134;
;;;;;;;;;;;002;ARSW00;2019_Nov_26_1035;iat_vr;60.082072110309134;
5;STADT;Gemacht;q;0;0;0;6;q;1;0.817420299999867;002;ARSW00;2019_Nov_26_1035;iat_vr;60.082072110309134;
5;BAUM;Natur;p;0;1;1;0;p;1;0.7973848999999973;002;ARSW00;2019_Nov_26_1035;iat_vr;60.082072110309134;
5;STEIN;Natur;p;0;2;2;4;p;1;0.4965283999999883;002;ARSW00;2019_Nov_26_1035;iat_vr;60.082072110309134;
5;LAMPE;Gemacht;q;0;3;3;9;q;1;0.6506835000000137;002;ARSW00;2019_Nov_26_1035;iat_vr;60.082072110309134;
5;BLUME;Natur;p;0;4;4;2;p;1;0.5843965999993088;002;ARSW00;2019_Nov_26_1035;iat_vr;60.082072110309134;
5;GEBÄUDE;Gemacht;q;0;5;5;5;q;1;0.6487702000003992;002;ARSW00;2019_Nov_26_1035;iat_vr;60.082072110309134;
5;COMPUTER;Gemacht;q;0;6;6;8;q;1;0.6778576999995494;002;ARSW00;2019_Nov_26_1035;iat_vr;60.082072110309134;
5;WASSER;Natur;p;0;7;7;1;p;1;0.6341420999997354;002;ARSW00;2019_Nov_26_1035;iat_vr;60.082072110309134;
5;KLEIDER;Gemacht;q;0;8;8;7;q;1;0.6675157999998191;002;ARSW00;2019_Nov_26_1035;iat_vr;60.082072110309134;
5;TIER;Natur;p;0;9;9;3;p;1;0.6474301000007472;002;ARSW00;2019_Nov_26_1035;iat_vr;60.082072110309134;
5;STEIN;Natur;p;1;0;10;4;p;1;0.5139850000005026;002;ARSW00;2019_Nov_26_1035;iat_vr;60.082072110309134;
5;KLEIDER;Gemacht;q;1;1;11;7;q;1;0.6357778999999937;002;ARSW00;2019_Nov_26_1035;iat_vr;60.082072110309134;
5;TIER;Natur;p;1;2;12;3;p;1;0.5647995999997875;002;ARSW00;2019_Nov_26_1035;iat_vr;60.082072110309134;
5;BAUM;Natur;p;1;3;13;0;p;1;0.5650040000000445;002;ARSW00;2019_Nov_26_1035;iat_vr;60.082072110309134;
5;GEBÄUDE;Gemacht;q;1;4;14;5;q;1;0.5694713000002594;002;ARSW00;2019_Nov_26_1035;iat_vr;60.082072110309134;
5;COMPUTER;Gemacht;q;1;5;15;8;q;1;0.6475439000005281;002;ARSW00;2019_Nov_26_1035;iat_vr;60.082072110309134;
5;LAMPE;Gemacht;q;1;6;16;9;q;1;0.562823300000673;002;ARSW00;2019_Nov_26_1035;iat_vr;60.082072110309134;
5;STADT;Gemacht;q;1;7;17;6;p;0;0.5329191999999239;002;ARSW00;2019_Nov_26_1035;iat_vr;60.082072110309134;
5;WASSER;Natur;p;1;8;18;1;p;1;0.5315998999994918;002;ARSW00;2019_Nov_26_1035;iat_vr;60.082072110309134;
5;BLUME;Natur;p;1;9;19;2;p;1;0.5615715000003547;002;ARSW00;2019_Nov_26_1035;iat_vr;60.082072110309134;
;;;;;;;;;;;002;ARSW00;2019_Nov_26_1035;iat_vr;60.082072110309134;
6;TIER;Natur;p;0;0;0;3;p;1;0.7925457000001188;002;ARSW00;2019_Nov_26_1035;iat_vr;60.082072110309134;
6;GEBÄUDE;Gemacht;q;0;1;1;5;q;1;0.7124273999997968;002;ARSW00;2019_Nov_26_1035;iat_vr;60.082072110309134;
6;EINWANDFREI;positiv;p;0;2;2;16;p;1;0.6023339000003034;002;ARSW00;2019_Nov_26_1035;iat_vr;60.082072110309134;
6;LAMPE;Gemacht;q;0;3;3;9;q;1;0.7302425999996558;002;ARSW00;2019_Nov_26_1035;iat_vr;60.082072110309134;
6;STEIN;Natur;p;0;4;4;4;p;1;0.731868800000484;002;ARSW00;2019_Nov_26_1035;iat_vr;60.082072110309134;
6;WASSER;Natur;p;0;5;5;1;p;1;0.6459764999999607;002;ARSW00;2019_Nov_26_1035;iat_vr;60.082072110309134;
6;COMPUTER;Gemacht;q;0;6;6;8;q;1;0.696150700000544;002;ARSW00;2019_Nov_26_1035;iat_vr;60.082072110309134;
6;SCHÄDLICH;negativ;q;0;7;7;13;q;1;0.6056924999993498;002;ARSW00;2019_Nov_26_1035;iat_vr;60.082072110309134;
6;NEGATIV;negativ;q;0;8;8;12;q;1;0.6153425000002244;002;ARSW00;2019_Nov_26_1035;iat_vr;60.082072110309134;
6;SCHLECHT;negativ;q;0;9;9;11;q;1;0.6629036000003907;002;ARSW00;2019_Nov_26_1035;iat_vr;60.082072110309134;
6;POSITIV;positiv;p;0;10;10;18;p;1;0.5673741999999038;002;ARSW00;2019_Nov_26_1035;iat_vr;60.082072110309134;
6;BLUME;Natur;p;0;11;11;2;p;1;0.6319210999999996;002;ARSW00;2019_Nov_26_1035;iat_vr;60.082072110309134;
6;SCHLIMM;negativ;q;0;12;12;10;q;1;0.5788073999992775;002;ARSW00;2019_Nov_26_1035;iat_vr;60.082072110309134;
6;STADT;Gemacht;q;0;13;13;6;q;1;0.6148850999998103;002;ARSW00;2019_Nov_26_1035;iat_vr;60.082072110309134;
6;HERVORRAGEND;positiv;p;0;14;14;17;p;1;0.5789322000000539;002;ARSW00;2019_Nov_26_1035;iat_vr;60.082072110309134;
6;BAUM;Natur;p;0;15;15;0;p;1;0.8134098000000449;002;ARSW00;2019_Nov_26_1035;iat_vr;60.082072110309134;
6;KLEIDER;Gemacht;q;0;16;16;7;q;1;0.6001930000002176;002;ARSW00;2019_Nov_26_1035;iat_vr;60.082072110309134;
6;AUSGEZEICHNET;positiv;p;0;17;17;15;p;1;0.5855407999997624;002;ARSW00;2019_Nov_26_1035;iat_vr;60.082072110309134;
6;SCHWACH;negativ;q;0;18;18;14;q;1;0.6309799000000567;002;ARSW00;2019_Nov_26_1035;iat_vr;60.082072110309134;
6;GUT;positiv;p;0;19;19;19;p;1;0.5486815000003844;002;ARSW00;2019_Nov_26_1035;iat_vr;60.082072110309134;
;;;;;;;;;;;002;ARSW00;2019_Nov_26_1035;iat_vr;60.082072110309134;
7;LAMPE;Gemacht;q;0;0;0;9;q;1;0.790703399999984;002;ARSW00;2019_Nov_26_1035;iat_vr;60.082072110309134;
7;GEBÄUDE;Gemacht;q;0;1;1;5;q;1;0.6801035999997112;002;ARSW00;2019_Nov_26_1035;iat_vr;60.082072110309134;
7;STEIN;Natur;p;0;2;2;4;p;1;0.6627468999995472;002;ARSW00;2019_Nov_26_1035;iat_vr;60.082072110309134;
7;BAUM;Natur;p;0;3;3;0;p;1;0.5320928000001004;002;ARSW00;2019_Nov_26_1035;iat_vr;60.082072110309134;
7;HERVORRAGEND;positiv;p;0;4;4;17;p;1;0.5356476000006296;002;ARSW00;2019_Nov_26_1035;iat_vr;60.082072110309134;
7;BLUME;Natur;p;0;5;5;2;p;1;0.5317926999996416;002;ARSW00;2019_Nov_26_1035;iat_vr;60.082072110309134;
7;TIER;Natur;p;0;6;6;3;p;1;0.5691199000002598;002;ARSW00;2019_Nov_26_1035;iat_vr;60.082072110309134;
7;COMPUTER;Gemacht;q;0;7;7;8;q;1;0.569280599999729;002;ARSW00;2019_Nov_26_1035;iat_vr;60.082072110309134;
7;AUSGEZEICHNET;positiv;p;0;8;8;15;p;1;0.5592687999996997;002;ARSW00;2019_Nov_26_1035;iat_vr;60.082072110309134;
7;KLEIDER;Gemacht;q;0;9;9;7;q;1;0.5855320000000575;002;ARSW00;2019_Nov_26_1035;iat_vr;60.082072110309134;
7;SCHWACH;negativ;q;0;10;10;14;q;1;0.7349195000006148;002;ARSW00;2019_Nov_26_1035;iat_vr;60.082072110309134;
7;GUT;positiv;p;0;11;11;19;p;1;0.597955200000797;002;ARSW00;2019_Nov_26_1035;iat_vr;60.082072110309134;
7;SCHLIMM;negativ;q;0;12;12;10;q;1;0.5103509000000486;002;ARSW00;2019_Nov_26_1035;iat_vr;60.082072110309134;
7;STADT;Gemacht;q;0;13;13;6;q;1;0.9169496000004074;002;ARSW00;2019_Nov_26_1035;iat_vr;60.082072110309134;
7;SCHLECHT;negativ;q;0;14;14;11;q;1;0.5815270000002783;002;ARSW00;2019_Nov_26_1035;iat_vr;60.082072110309134;
7;EINWANDFREI;positiv;p;0;15;15;16;q;0;0.5621110000001863;002;ARSW00;2019_Nov_26_1035;iat_vr;60.082072110309134;
7;NEGATIV;negativ;q;0;16;16;12;q;1;0.6612021000000823;002;ARSW00;2019_Nov_26_1035;iat_vr;60.082072110309134;
7;WASSER;Natur;p;0;17;17;1;p;1;0.7306428000001688;002;ARSW00;2019_Nov_26_1035;iat_vr;60.082072110309134;
7;SCHÄDLICH;negativ;q;0;18;18;13;q;1;0.6460838000002695;002;ARSW00;2019_Nov_26_1035;iat_vr;60.082072110309134;
7;POSITIV;positiv;p;0;19;19;18;p;1;0.5854590999997527;002;ARSW00;2019_Nov_26_1035;iat_vr;60.082072110309134;
7;GEBÄUDE;Gemacht;q;1;0;20;5;q;1;0.6802655999999843;002;ARSW00;2019_Nov_26_1035;iat_vr;60.082072110309134;
7;POSITIV;positiv;p;1;1;21;18;p;1;0.5787041000003228;002;ARSW00;2019_Nov_26_1035;iat_vr;60.082072110309134;
7;NEGATIV;negativ;q;1;2;22;12;q;1;0.6477454999994734;002;ARSW00;2019_Nov_26_1035;iat_vr;60.082072110309134;
7;WASSER;Natur;p;1;3;23;1;p;1;0.6152261000006547;002;ARSW00;2019_Nov_26_1035;iat_vr;60.082072110309134;
7;EINWANDFREI;positiv;p;1;4;24;16;p;1;0.5775499000001219;002;ARSW00;2019_Nov_26_1035;iat_vr;60.082072110309134;
7;STEIN;Natur;p;1;5;25;4;p;1;0.5813592999993489;002;ARSW00;2019_Nov_26_1035;iat_vr;60.082072110309134;
7;BLUME;Natur;p;1;6;26;2;p;1;0.5357231999996657;002;ARSW00;2019_Nov_26_1035;iat_vr;60.082072110309134;
7;GUT;positiv;p;1;7;27;19;p;1;0.6315036000005421;002;ARSW00;2019_Nov_26_1035;iat_vr;60.082072110309134;
7;SCHLECHT;negativ;q;1;8;28;11;q;1;0.5644136000000799;002;ARSW00;2019_Nov_26_1035;iat_vr;60.082072110309134;
7;LAMPE;Gemacht;q;1;9;29;9;q;1;0.5853590999995504;002;ARSW00;2019_Nov_26_1035;iat_vr;60.082072110309134;
7;BAUM;Natur;p;1;10;30;0;p;1;0.547822499999711;002;ARSW00;2019_Nov_26_1035;iat_vr;60.082072110309134;
7;SCHÄDLICH;negativ;q;1;11;31;13;q;1;0.564297599999918;002;ARSW00;2019_Nov_26_1035;iat_vr;60.082072110309134;
7;AUSGEZEICHNET;positiv;p;1;12;32;15;p;1;0.7277926999995543;002;ARSW00;2019_Nov_26_1035;iat_vr;60.082072110309134;
7;COMPUTER;Gemacht;q;1;13;33;8;q;1;0.5302253999998356;002;ARSW00;2019_Nov_26_1035;iat_vr;60.082072110309134;
7;SCHLIMM;negativ;q;1;14;34;10;q;1;0.629063700000188;002;ARSW00;2019_Nov_26_1035;iat_vr;60.082072110309134;
7;HERVORRAGEND;positiv;p;1;15;35;17;p;1;0.5111754999998084;002;ARSW00;2019_Nov_26_1035;iat_vr;60.082072110309134;
7;KLEIDER;Gemacht;q;1;16;36;7;q;1;0.6019980999999461;002;ARSW00;2019_Nov_26_1035;iat_vr;60.082072110309134;
7;STADT;Gemacht;q;1;17;37;6;p;0;0.4944134999996095;002;ARSW00;2019_Nov_26_1035;iat_vr;60.082072110309134;
7;SCHWACH;negativ;q;1;18;38;14;q;1;0.6297066999995877;002;ARSW00;2019_Nov_26_1035;iat_vr;60.082072110309134;
7;TIER;Natur;p;1;19;39;3;p;1;0.8364552000002732;002;ARSW00;2019_Nov_26_1035;iat_vr;60.082072110309134;
;;;;;;;;;;;002;ARSW00;2019_Nov_26_1035;iat_vr;60.082072110309134;
