Block;Word;Category;CorrResp;trials.thisRepN;trials.thisTrialN;trials.thisN;trials.thisIndex;key_resp_2.keys;key_resp_2.corr;key_resp_2.rt;session;participant;date;expName;frameRate;
1;KLEIDER;Gemacht;p;0;0;0;7;p;1;1.1168808999996145;001;ARSW00;2019_Nov_26_1019;iat_vr;59.94391647169169;
1;LAMPE;Gemacht;p;0;1;1;9;p;1;0.7216514000001553;001;ARSW00;2019_Nov_26_1019;iat_vr;59.94391647169169;
1;COMPUTER;Gemacht;p;0;2;2;8;p;1;0.6028205000002345;001;ARSW00;2019_Nov_26_1019;iat_vr;59.94391647169169;
1;WASSER;Natur;q;0;3;3;1;q;1;0.5250395999996726;001;ARSW00;2019_Nov_26_1019;iat_vr;59.94391647169169;
1;BLUME;Natur;q;0;4;4;2;q;1;0.7168639000001349;001;ARSW00;2019_Nov_26_1019;iat_vr;59.94391647169169;
1;GEBÄUDE;Gemacht;p;0;5;5;5;p;1;0.5547900999999911;001;ARSW00;2019_Nov_26_1019;iat_vr;59.94391647169169;
1;STEIN;Natur;q;0;6;6;4;q;1;0.5005774000001111;001;ARSW00;2019_Nov_26_1019;iat_vr;59.94391647169169;
1;STADT;Gemacht;p;0;7;7;6;p;1;0.5674024999998437;001;ARSW00;2019_Nov_26_1019;iat_vr;59.94391647169169;
1;TIER;Natur;q;0;8;8;3;q;1;0.6848439000000326;001;ARSW00;2019_Nov_26_1019;iat_vr;59.94391647169169;
1;BAUM;Natur;q;0;9;9;0;q;1;0.6680224000001544;001;ARSW00;2019_Nov_26_1019;iat_vr;59.94391647169169;
1;COMPUTER;Gemacht;p;1;0;10;8;p;1;0.5478579000000536;001;ARSW00;2019_Nov_26_1019;iat_vr;59.94391647169169;
1;GEBÄUDE;Gemacht;p;1;1;11;5;p;1;0.5165093999999044;001;ARSW00;2019_Nov_26_1019;iat_vr;59.94391647169169;
1;BLUME;Natur;q;1;2;12;2;q;1;0.5639240000000427;001;ARSW00;2019_Nov_26_1019;iat_vr;59.94391647169169;
1;TIER;Natur;q;1;3;13;3;q;1;0.5998263000001316;001;ARSW00;2019_Nov_26_1019;iat_vr;59.94391647169169;
1;KLEIDER;Gemacht;p;1;4;14;7;p;1;0.5157066000001578;001;ARSW00;2019_Nov_26_1019;iat_vr;59.94391647169169;
1;STEIN;Natur;q;1;5;15;4;p;0;0.5291434999999183;001;ARSW00;2019_Nov_26_1019;iat_vr;59.94391647169169;
1;STADT;Gemacht;p;1;6;16;6;p;1;0.9134121000001869;001;ARSW00;2019_Nov_26_1019;iat_vr;59.94391647169169;
1;WASSER;Natur;q;1;7;17;1;q;1;0.6642510000001494;001;ARSW00;2019_Nov_26_1019;iat_vr;59.94391647169169;
1;LAMPE;Gemacht;p;1;8;18;9;p;1;0.5483688999997867;001;ARSW00;2019_Nov_26_1019;iat_vr;59.94391647169169;
1;BAUM;Natur;q;1;9;19;0;q;1;0.5836788000001434;001;ARSW00;2019_Nov_26_1019;iat_vr;59.94391647169169;
;;;;;;;;;;;001;ARSW00;2019_Nov_26_1019;iat_vr;59.94391647169169;
2;SCHLIMM;negativ;q;0;0;0;0;q;1;1.2317414000003737;001;ARSW00;2019_Nov_26_1019;iat_vr;59.94391647169169;
2;SCHWACH;negativ;q;0;1;1;4;q;1;0.6967695999996977;001;ARSW00;2019_Nov_26_1019;iat_vr;59.94391647169169;
2;AUSGEZEICHNET;positiv;p;0;2;2;5;p;1;0.7278522000001431;001;ARSW00;2019_Nov_26_1019;iat_vr;59.94391647169169;
2;NEGATIV;negativ;q;0;3;3;2;q;1;0.7984815999998318;001;ARSW00;2019_Nov_26_1019;iat_vr;59.94391647169169;
2;SCHÄDLICH;negativ;q;0;4;4;3;q;1;0.6601618999998209;001;ARSW00;2019_Nov_26_1019;iat_vr;59.94391647169169;
2;EINWANDFREI;positiv;p;0;5;5;6;p;1;0.9335034999999152;001;ARSW00;2019_Nov_26_1019;iat_vr;59.94391647169169;
2;SCHLECHT;negativ;q;0;6;6;1;q;1;0.7838926999997966;001;ARSW00;2019_Nov_26_1019;iat_vr;59.94391647169169;
2;POSITIV;positiv;p;0;7;7;8;p;1;0.6174256999997851;001;ARSW00;2019_Nov_26_1019;iat_vr;59.94391647169169;
2;HERVORRAGEND;positiv;p;0;8;8;7;p;1;0.6350965999999971;001;ARSW00;2019_Nov_26_1019;iat_vr;59.94391647169169;
2;GUT;positiv;p;0;9;9;9;p;1;0.5338518999997177;001;ARSW00;2019_Nov_26_1019;iat_vr;59.94391647169169;
2;SCHLECHT;negativ;q;1;0;10;1;q;1;0.5631657999997515;001;ARSW00;2019_Nov_26_1019;iat_vr;59.94391647169169;
2;NEGATIV;negativ;q;1;1;11;2;q;1;0.5804650999998557;001;ARSW00;2019_Nov_26_1019;iat_vr;59.94391647169169;
2;SCHWACH;negativ;q;1;2;12;4;q;1;0.606997500000034;001;ARSW00;2019_Nov_26_1019;iat_vr;59.94391647169169;
2;SCHÄDLICH;negativ;q;1;3;13;3;q;1;0.5112642000003689;001;ARSW00;2019_Nov_26_1019;iat_vr;59.94391647169169;
2;HERVORRAGEND;positiv;p;1;4;14;7;p;1;0.5775259000001824;001;ARSW00;2019_Nov_26_1019;iat_vr;59.94391647169169;
2;POSITIV;positiv;p;1;5;15;8;p;1;0.486021200000323;001;ARSW00;2019_Nov_26_1019;iat_vr;59.94391647169169;
2;SCHLIMM;negativ;q;1;6;16;0;q;1;0.5454539999996086;001;ARSW00;2019_Nov_26_1019;iat_vr;59.94391647169169;
2;EINWANDFREI;positiv;p;1;7;17;6;p;1;0.5671596999995927;001;ARSW00;2019_Nov_26_1019;iat_vr;59.94391647169169;
2;GUT;positiv;p;1;8;18;9;p;1;0.4843110000001616;001;ARSW00;2019_Nov_26_1019;iat_vr;59.94391647169169;
2;AUSGEZEICHNET;positiv;p;1;9;19;5;p;1;0.5475507999999536;001;ARSW00;2019_Nov_26_1019;iat_vr;59.94391647169169;
;;;;;;;;;;;001;ARSW00;2019_Nov_26_1019;iat_vr;59.94391647169169;
3;AUSGEZEICHNET;positiv;p;0;0;0;5;p;1;0.8075967999998284;001;ARSW00;2019_Nov_26_1019;iat_vr;59.94391647169169;
3;SCHLECHT;negativ;q;0;1;1;1;q;1;0.7666156000000228;001;ARSW00;2019_Nov_26_1019;iat_vr;59.94391647169169;
3;POSITIV;positiv;p;0;2;2;8;p;1;0.7847248000002764;001;ARSW00;2019_Nov_26_1019;iat_vr;59.94391647169169;
3;BLUME;Natur;q;0;3;3;12;q;1;1.0315138999999363;001;ARSW00;2019_Nov_26_1019;iat_vr;59.94391647169169;
3;WASSER;Natur;q;0;4;4;11;q;1;0.6109027000002243;001;ARSW00;2019_Nov_26_1019;iat_vr;59.94391647169169;
3;SCHWACH;negativ;q;0;5;5;4;q;1;1.0170593999996527;001;ARSW00;2019_Nov_26_1019;iat_vr;59.94391647169169;
3;GUT;positiv;p;0;6;6;9;p;1;0.6518698999998378;001;ARSW00;2019_Nov_26_1019;iat_vr;59.94391647169169;
3;EINWANDFREI;positiv;p;0;7;7;6;p;1;0.7180038000001332;001;ARSW00;2019_Nov_26_1019;iat_vr;59.94391647169169;
3;STADT;Gemacht;p;0;8;8;16;p;1;0.6310960000000705;001;ARSW00;2019_Nov_26_1019;iat_vr;59.94391647169169;
3;LAMPE;Gemacht;p;0;9;9;19;p;1;0.6673064000001432;001;ARSW00;2019_Nov_26_1019;iat_vr;59.94391647169169;
3;NEGATIV;negativ;q;0;10;10;2;q;1;0.6829863000002661;001;ARSW00;2019_Nov_26_1019;iat_vr;59.94391647169169;
3;BAUM;Natur;q;0;11;11;10;q;1;0.8661898000000292;001;ARSW00;2019_Nov_26_1019;iat_vr;59.94391647169169;
3;COMPUTER;Gemacht;p;0;12;12;18;p;1;0.6171749000000091;001;ARSW00;2019_Nov_26_1019;iat_vr;59.94391647169169;
3;GEBÄUDE;Gemacht;p;0;13;13;15;p;1;0.6456857000002856;001;ARSW00;2019_Nov_26_1019;iat_vr;59.94391647169169;
3;KLEIDER;Gemacht;p;0;14;14;17;p;1;1.1955176000001302;001;ARSW00;2019_Nov_26_1019;iat_vr;59.94391647169169;
3;STEIN;Natur;q;0;15;15;14;q;1;0.6300979000002371;001;ARSW00;2019_Nov_26_1019;iat_vr;59.94391647169169;
3;SCHLIMM;negativ;q;0;16;16;0;q;1;0.8670581000001221;001;ARSW00;2019_Nov_26_1019;iat_vr;59.94391647169169;
3;SCHÄDLICH;negativ;q;0;17;17;3;q;1;0.5526374000000942;001;ARSW00;2019_Nov_26_1019;iat_vr;59.94391647169169;
3;HERVORRAGEND;positiv;p;0;18;18;7;p;1;0.5937073999998574;001;ARSW00;2019_Nov_26_1019;iat_vr;59.94391647169169;
3;TIER;Natur;q;0;19;19;13;q;1;0.8184987999998157;001;ARSW00;2019_Nov_26_1019;iat_vr;59.94391647169169;
;;;;;;;;;;;001;ARSW00;2019_Nov_26_1019;iat_vr;59.94391647169169;
4;STEIN;Natur;q;0;0;0;14;q;1;0.8180081000000428;001;ARSW00;2019_Nov_26_1019;iat_vr;59.94391647169169;
4;SCHÄDLICH;negativ;q;0;1;1;3;q;1;0.6026534999996329;001;ARSW00;2019_Nov_26_1019;iat_vr;59.94391647169169;
4;BLUME;Natur;q;0;2;2;12;q;1;0.6187199999999393;001;ARSW00;2019_Nov_26_1019;iat_vr;59.94391647169169;
4;NEGATIV;negativ;q;0;3;3;2;q;1;0.6021875999999793;001;ARSW00;2019_Nov_26_1019;iat_vr;59.94391647169169;
4;WASSER;Natur;q;0;4;4;11;q;1;0.5966929000001073;001;ARSW00;2019_Nov_26_1019;iat_vr;59.94391647169169;
4;TIER;Natur;q;0;5;5;13;q;1;0.6202640000001338;001;ARSW00;2019_Nov_26_1019;iat_vr;59.94391647169169;
4;SCHWACH;negativ;q;0;6;6;4;q;1;0.594618999999966;001;ARSW00;2019_Nov_26_1019;iat_vr;59.94391647169169;
4;COMPUTER;Gemacht;p;0;7;7;18;p;1;0.5452814000000217;001;ARSW00;2019_Nov_26_1019;iat_vr;59.94391647169169;
4;HERVORRAGEND;positiv;p;0;8;8;7;p;1;0.7254149999998845;001;ARSW00;2019_Nov_26_1019;iat_vr;59.94391647169169;
4;LAMPE;Gemacht;p;0;9;9;19;p;1;1.0004392999999254;001;ARSW00;2019_Nov_26_1019;iat_vr;59.94391647169169;
4;GEBÄUDE;Gemacht;p;0;10;10;15;p;1;0.618248499999936;001;ARSW00;2019_Nov_26_1019;iat_vr;59.94391647169169;
4;POSITIV;positiv;p;0;11;11;8;p;1;0.5286040999999386;001;ARSW00;2019_Nov_26_1019;iat_vr;59.94391647169169;
4;SCHLECHT;negativ;q;0;12;12;1;q;1;0.5503845999996884;001;ARSW00;2019_Nov_26_1019;iat_vr;59.94391647169169;
4;GUT;positiv;p;0;13;13;9;p;1;0.5324306000002252;001;ARSW00;2019_Nov_26_1019;iat_vr;59.94391647169169;
4;KLEIDER;Gemacht;p;0;14;14;17;p;1;0.6125471000000289;001;ARSW00;2019_Nov_26_1019;iat_vr;59.94391647169169;
4;STADT;Gemacht;p;0;15;15;16;p;1;0.7689679999998589;001;ARSW00;2019_Nov_26_1019;iat_vr;59.94391647169169;
4;EINWANDFREI;positiv;p;0;16;16;6;p;1;0.5755933999998888;001;ARSW00;2019_Nov_26_1019;iat_vr;59.94391647169169;
4;BAUM;Natur;q;0;17;17;10;q;1;0.76738800000021;001;ARSW00;2019_Nov_26_1019;iat_vr;59.94391647169169;
4;SCHLIMM;negativ;q;0;18;18;0;q;1;0.713225599999987;001;ARSW00;2019_Nov_26_1019;iat_vr;59.94391647169169;
4;AUSGEZEICHNET;positiv;p;0;19;19;5;p;1;0.5758203000000321;001;ARSW00;2019_Nov_26_1019;iat_vr;59.94391647169169;
4;STADT;Gemacht;p;1;0;20;16;p;1;1.2678008999996564;001;ARSW00;2019_Nov_26_1019;iat_vr;59.94391647169169;
4;POSITIV;positiv;p;1;1;21;8;p;1;0.7820969999997942;001;ARSW00;2019_Nov_26_1019;iat_vr;59.94391647169169;
4;SCHLECHT;negativ;q;1;2;22;1;q;1;0.6838616000000002;001;ARSW00;2019_Nov_26_1019;iat_vr;59.94391647169169;
4;SCHÄDLICH;negativ;q;1;3;23;3;q;1;0.5337220000001253;001;ARSW00;2019_Nov_26_1019;iat_vr;59.94391647169169;
4;TIER;Natur;q;1;4;24;13;q;1;0.5003664000000754;001;ARSW00;2019_Nov_26_1019;iat_vr;59.94391647169169;
4;EINWANDFREI;positiv;p;1;5;25;6;p;1;0.7504539999999906;001;ARSW00;2019_Nov_26_1019;iat_vr;59.94391647169169;
4;GUT;positiv;p;1;6;26;9;p;1;0.5336918999996669;001;ARSW00;2019_Nov_26_1019;iat_vr;59.94391647169169;
4;COMPUTER;Gemacht;p;1;7;27;18;p;1;0.6004213000001073;001;ARSW00;2019_Nov_26_1019;iat_vr;59.94391647169169;
4;SCHWACH;negativ;q;1;8;28;4;q;1;0.716758700000355;001;ARSW00;2019_Nov_26_1019;iat_vr;59.94391647169169;
4;KLEIDER;Gemacht;p;1;9;29;17;p;1;0.88381470000013;001;ARSW00;2019_Nov_26_1019;iat_vr;59.94391647169169;
4;SCHLIMM;negativ;q;1;10;30;0;q;1;0.8168783999999505;001;ARSW00;2019_Nov_26_1019;iat_vr;59.94391647169169;
4;HERVORRAGEND;positiv;p;1;11;31;7;p;1;0.5338013999999021;001;ARSW00;2019_Nov_26_1019;iat_vr;59.94391647169169;
4;STEIN;Natur;q;1;12;32;14;q;1;0.9002653000002283;001;ARSW00;2019_Nov_26_1019;iat_vr;59.94391647169169;
4;GEBÄUDE;Gemacht;p;1;13;33;15;p;1;0.5839223999996648;001;ARSW00;2019_Nov_26_1019;iat_vr;59.94391647169169;
4;AUSGEZEICHNET;positiv;p;1;14;34;5;p;1;0.5504697000001215;001;ARSW00;2019_Nov_26_1019;iat_vr;59.94391647169169;
4;NEGATIV;negativ;q;1;15;35;2;q;1;0.6004582999999002;001;ARSW00;2019_Nov_26_1019;iat_vr;59.94391647169169;
4;BLUME;Natur;q;1;16;36;12;q;1;0.6832164000002194;001;ARSW00;2019_Nov_26_1019;iat_vr;59.94391647169169;
4;BAUM;Natur;q;1;17;37;10;q;1;0.5672482999998465;001;ARSW00;2019_Nov_26_1019;iat_vr;59.94391647169169;
4;LAMPE;Gemacht;p;1;18;38;19;p;1;0.5669183999998495;001;ARSW00;2019_Nov_26_1019;iat_vr;59.94391647169169;
4;WASSER;Natur;q;1;19;39;11;q;1;0.5006253999999899;001;ARSW00;2019_Nov_26_1019;iat_vr;59.94391647169169;
;;;;;;;;;;;001;ARSW00;2019_Nov_26_1019;iat_vr;59.94391647169169;
5;GEBÄUDE;Gemacht;q;0;0;0;5;q;1;0.6287934000001769;001;ARSW00;2019_Nov_26_1019;iat_vr;59.94391647169169;
5;STADT;Gemacht;q;0;1;1;6;q;1;0.5172486999999819;001;ARSW00;2019_Nov_26_1019;iat_vr;59.94391647169169;
5;KLEIDER;Gemacht;q;0;2;2;7;q;1;0.5337754000001951;001;ARSW00;2019_Nov_26_1019;iat_vr;59.94391647169169;
5;WASSER;Natur;p;0;3;3;1;p;1;0.4837302999999338;001;ARSW00;2019_Nov_26_1019;iat_vr;59.94391647169169;
5;COMPUTER;Gemacht;q;0;4;4;8;q;1;0.5002815000002556;001;ARSW00;2019_Nov_26_1019;iat_vr;59.94391647169169;
5;BAUM;Natur;p;0;5;5;0;p;1;0.8504566000001432;001;ARSW00;2019_Nov_26_1019;iat_vr;59.94391647169169;
5;TIER;Natur;p;0;6;6;3;p;1;0.5522426999996242;001;ARSW00;2019_Nov_26_1019;iat_vr;59.94391647169169;
5;BLUME;Natur;p;0;7;7;2;p;1;0.44800230000009833;001;ARSW00;2019_Nov_26_1019;iat_vr;59.94391647169169;
5;STEIN;Natur;p;0;8;8;4;p;1;0.6826049999999668;001;ARSW00;2019_Nov_26_1019;iat_vr;59.94391647169169;
5;LAMPE;Gemacht;q;0;9;9;9;q;1;0.5691398999997546;001;ARSW00;2019_Nov_26_1019;iat_vr;59.94391647169169;
5;BAUM;Natur;p;1;0;10;0;p;1;0.5468498999998701;001;ARSW00;2019_Nov_26_1019;iat_vr;59.94391647169169;
5;COMPUTER;Gemacht;q;1;1;11;8;q;1;0.500015799999801;001;ARSW00;2019_Nov_26_1019;iat_vr;59.94391647169169;
5;KLEIDER;Gemacht;q;1;2;12;7;q;1;0.485970400000042;001;ARSW00;2019_Nov_26_1019;iat_vr;59.94391647169169;
5;WASSER;Natur;p;1;3;13;1;p;1;0.4973236000000725;001;ARSW00;2019_Nov_26_1019;iat_vr;59.94391647169169;
5;STEIN;Natur;p;1;4;14;4;q;0;0.5683742999999595;001;ARSW00;2019_Nov_26_1019;iat_vr;59.94391647169169;
5;STADT;Gemacht;q;1;5;15;6;q;1;1.0336379000000306;001;ARSW00;2019_Nov_26_1019;iat_vr;59.94391647169169;
5;LAMPE;Gemacht;q;1;6;16;9;q;1;0.5500713999999789;001;ARSW00;2019_Nov_26_1019;iat_vr;59.94391647169169;
5;BLUME;Natur;p;1;7;17;2;p;1;0.430576000000201;001;ARSW00;2019_Nov_26_1019;iat_vr;59.94391647169169;
5;TIER;Natur;p;1;8;18;3;p;1;0.5170219999999972;001;ARSW00;2019_Nov_26_1019;iat_vr;59.94391647169169;
5;GEBÄUDE;Gemacht;q;1;9;19;5;p;0;0.5503676999996969;001;ARSW00;2019_Nov_26_1019;iat_vr;59.94391647169169;
;;;;;;;;;;;001;ARSW00;2019_Nov_26_1019;iat_vr;59.94391647169169;
6;GEBÄUDE;Gemacht;q;0;0;0;5;q;1;0.7782573999998021;001;ARSW00;2019_Nov_26_1019;iat_vr;59.94391647169169;
6;NEGATIV;negativ;q;0;1;1;12;q;1;0.5666176999998243;001;ARSW00;2019_Nov_26_1019;iat_vr;59.94391647169169;
6;TIER;Natur;p;0;2;2;3;p;1;0.6157068999996227;001;ARSW00;2019_Nov_26_1019;iat_vr;59.94391647169169;
6;STADT;Gemacht;q;0;3;3;6;q;1;0.630520499999875;001;ARSW00;2019_Nov_26_1019;iat_vr;59.94391647169169;
6;GUT;positiv;p;0;4;4;19;p;1;0.5299727999999959;001;ARSW00;2019_Nov_26_1019;iat_vr;59.94391647169169;
6;BLUME;Natur;p;0;5;5;2;p;1;0.5003420999996706;001;ARSW00;2019_Nov_26_1019;iat_vr;59.94391647169169;
6;POSITIV;positiv;p;0;6;6;18;p;1;0.5522135999999591;001;ARSW00;2019_Nov_26_1019;iat_vr;59.94391647169169;
6;HERVORRAGEND;positiv;p;0;7;7;17;p;1;0.4589848999999049;001;ARSW00;2019_Nov_26_1019;iat_vr;59.94391647169169;
6;SCHLECHT;negativ;q;0;8;8;11;q;1;0.4976206999999704;001;ARSW00;2019_Nov_26_1019;iat_vr;59.94391647169169;
6;STEIN;Natur;p;0;9;9;4;p;1;0.7477566000002298;001;ARSW00;2019_Nov_26_1019;iat_vr;59.94391647169169;
6;AUSGEZEICHNET;positiv;p;0;10;10;15;p;1;0.9085884999999507;001;ARSW00;2019_Nov_26_1019;iat_vr;59.94391647169169;
6;LAMPE;Gemacht;q;0;11;11;9;q;1;0.5858865000000151;001;ARSW00;2019_Nov_26_1019;iat_vr;59.94391647169169;
6;COMPUTER;Gemacht;q;0;12;12;8;q;1;0.5304319000001669;001;ARSW00;2019_Nov_26_1019;iat_vr;59.94391647169169;
6;EINWANDFREI;positiv;p;0;13;13;16;p;1;0.5770615000001271;001;ARSW00;2019_Nov_26_1019;iat_vr;59.94391647169169;
6;BAUM;Natur;p;0;14;14;0;q;0;0.6623603999996703;001;ARSW00;2019_Nov_26_1019;iat_vr;59.94391647169169;
6;SCHLIMM;negativ;q;0;15;15;10;q;1;0.7476966999997785;001;ARSW00;2019_Nov_26_1019;iat_vr;59.94391647169169;
6;WASSER;Natur;p;0;16;16;1;p;1;0.666805999999724;001;ARSW00;2019_Nov_26_1019;iat_vr;59.94391647169169;
6;SCHÄDLICH;negativ;q;0;17;17;13;q;1;0.5324969999996938;001;ARSW00;2019_Nov_26_1019;iat_vr;59.94391647169169;
6;KLEIDER;Gemacht;q;0;18;18;7;q;1;0.663617499999873;001;ARSW00;2019_Nov_26_1019;iat_vr;59.94391647169169;
6;SCHWACH;negativ;q;0;19;19;14;q;1;0.6338383000002068;001;ARSW00;2019_Nov_26_1019;iat_vr;59.94391647169169;
;;;;;;;;;;;001;ARSW00;2019_Nov_26_1019;iat_vr;59.94391647169169;
7;EINWANDFREI;positiv;p;0;0;0;16;p;1;0.6373499000001175;001;ARSW00;2019_Nov_26_1019;iat_vr;59.94391647169169;
7;BLUME;Natur;p;0;1;1;2;p;1;0.4310506000001624;001;ARSW00;2019_Nov_26_1019;iat_vr;59.94391647169169;
7;AUSGEZEICHNET;positiv;p;0;2;2;15;p;1;0.5482896999997138;001;ARSW00;2019_Nov_26_1019;iat_vr;59.94391647169169;
7;NEGATIV;negativ;q;0;3;3;12;q;1;0.4958897999999863;001;ARSW00;2019_Nov_26_1019;iat_vr;59.94391647169169;
7;COMPUTER;Gemacht;q;0;4;4;8;q;1;0.5022024999998393;001;ARSW00;2019_Nov_26_1019;iat_vr;59.94391647169169;
7;WASSER;Natur;p;0;5;5;1;p;1;0.5355134000001271;001;ARSW00;2019_Nov_26_1019;iat_vr;59.94391647169169;
7;SCHLECHT;negativ;q;0;6;6;11;q;1;0.4961055000003398;001;ARSW00;2019_Nov_26_1019;iat_vr;59.94391647169169;
7;POSITIV;positiv;p;0;7;7;18;p;1;0.5145986999996239;001;ARSW00;2019_Nov_26_1019;iat_vr;59.94391647169169;
7;SCHWACH;negativ;q;0;8;8;14;q;1;0.5480204000000413;001;ARSW00;2019_Nov_26_1019;iat_vr;59.94391647169169;
7;STADT;Gemacht;q;0;9;9;6;q;1;1.4312380000001212;001;ARSW00;2019_Nov_26_1019;iat_vr;59.94391647169169;
7;KLEIDER;Gemacht;q;0;10;10;7;q;1;1.118362900000193;001;ARSW00;2019_Nov_26_1019;iat_vr;59.94391647169169;
7;GEBÄUDE;Gemacht;q;0;11;11;5;q;1;0.6487331000002996;001;ARSW00;2019_Nov_26_1019;iat_vr;59.94391647169169;
7;HERVORRAGEND;positiv;p;0;12;12;17;p;1;0.5672399000000041;001;ARSW00;2019_Nov_26_1019;iat_vr;59.94391647169169;
7;TIER;Natur;p;0;13;13;3;p;1;0.8167535000002317;001;ARSW00;2019_Nov_26_1019;iat_vr;59.94391647169169;
7;GUT;positiv;p;0;14;14;19;p;1;0.5497439999999187;001;ARSW00;2019_Nov_26_1019;iat_vr;59.94391647169169;
7;SCHLIMM;negativ;q;0;15;15;10;q;1;0.535646700000143;001;ARSW00;2019_Nov_26_1019;iat_vr;59.94391647169169;
7;LAMPE;Gemacht;q;0;16;16;9;q;1;0.5637093000000277;001;ARSW00;2019_Nov_26_1019;iat_vr;59.94391647169169;
7;STEIN;Natur;p;0;17;17;4;p;1;0.6121671999999307;001;ARSW00;2019_Nov_26_1019;iat_vr;59.94391647169169;
7;BAUM;Natur;p;0;18;18;0;p;1;0.5188377999998011;001;ARSW00;2019_Nov_26_1019;iat_vr;59.94391647169169;
7;SCHÄDLICH;negativ;q;0;19;19;13;q;1;0.6117527000001246;001;ARSW00;2019_Nov_26_1019;iat_vr;59.94391647169169;
7;HERVORRAGEND;positiv;p;1;0;20;17;p;1;1.7657672000000275;001;ARSW00;2019_Nov_26_1019;iat_vr;59.94391647169169;
7;BAUM;Natur;p;1;1;21;0;p;1;0.633180700000139;001;ARSW00;2019_Nov_26_1019;iat_vr;59.94391647169169;
7;NEGATIV;negativ;q;1;2;22;12;q;1;0.7017997000002651;001;ARSW00;2019_Nov_26_1019;iat_vr;59.94391647169169;
7;COMPUTER;Gemacht;q;1;3;23;8;q;1;0.49698609999995824;001;ARSW00;2019_Nov_26_1019;iat_vr;59.94391647169169;
7;EINWANDFREI;positiv;p;1;4;24;16;p;1;0.547002600000269;001;ARSW00;2019_Nov_26_1019;iat_vr;59.94391647169169;
7;POSITIV;positiv;p;1;5;25;18;p;1;0.6808009000001221;001;ARSW00;2019_Nov_26_1019;iat_vr;59.94391647169169;
7;GEBÄUDE;Gemacht;q;1;6;26;5;q;1;0.5769052000000556;001;ARSW00;2019_Nov_26_1019;iat_vr;59.94391647169169;
7;TIER;Natur;p;1;7;27;3;p;1;0.7006546000002345;001;ARSW00;2019_Nov_26_1019;iat_vr;59.94391647169169;
7;SCHLIMM;negativ;q;1;8;28;10;q;1;0.5685417999998208;001;ARSW00;2019_Nov_26_1019;iat_vr;59.94391647169169;
7;KLEIDER;Gemacht;q;1;9;29;7;q;1;1.2108964000003652;001;ARSW00;2019_Nov_26_1019;iat_vr;59.94391647169169;
7;WASSER;Natur;p;1;10;30;1;p;1;0.5308004999997138;001;ARSW00;2019_Nov_26_1019;iat_vr;59.94391647169169;
7;SCHÄDLICH;negativ;q;1;11;31;13;q;1;0.5142879999998513;001;ARSW00;2019_Nov_26_1019;iat_vr;59.94391647169169;
7;STEIN;Natur;p;1;12;32;4;p;1;0.6296474999999191;001;ARSW00;2019_Nov_26_1019;iat_vr;59.94391647169169;
7;BLUME;Natur;p;1;13;33;2;p;1;0.6003854000000501;001;ARSW00;2019_Nov_26_1019;iat_vr;59.94391647169169;
7;STADT;Gemacht;q;1;14;34;6;q;1;0.669119000000137;001;ARSW00;2019_Nov_26_1019;iat_vr;59.94391647169169;
7;GUT;positiv;p;1;15;35;19;p;1;0.529377199999999;001;ARSW00;2019_Nov_26_1019;iat_vr;59.94391647169169;
7;AUSGEZEICHNET;positiv;p;1;16;36;15;p;1;0.5870365000000675;001;ARSW00;2019_Nov_26_1019;iat_vr;59.94391647169169;
7;SCHWACH;negativ;q;1;17;37;14;q;1;0.48468819999970947;001;ARSW00;2019_Nov_26_1019;iat_vr;59.94391647169169;
7;SCHLECHT;negativ;q;1;18;38;11;q;1;0.4827138999999079;001;ARSW00;2019_Nov_26_1019;iat_vr;59.94391647169169;
7;LAMPE;Gemacht;q;1;19;39;9;q;1;0.6508320999996613;001;ARSW00;2019_Nov_26_1019;iat_vr;59.94391647169169;
;;;;;;;;;;;001;ARSW00;2019_Nov_26_1019;iat_vr;59.94391647169169;
