Block;Word;Category;CorrResp;trials.thisRepN;trials.thisTrialN;trials.thisN;trials.thisIndex;key_resp_2.keys;key_resp_2.corr;key_resp_2.rt;session;participant;date;expName;frameRate;
1;GEBÄUDE;Gemacht;p;0;0;0;5;p;1;1.3577399999994668;001;ASDG98;2019_Nov_28_1555;iat_vr;59.9517508303883;
1;KLEIDER;Gemacht;p;0;1;1;7;p;1;0.9502843000009307;001;ASDG98;2019_Nov_28_1555;iat_vr;59.9517508303883;
1;STADT;Gemacht;p;0;2;2;6;p;1;0.9338293000000704;001;ASDG98;2019_Nov_28_1555;iat_vr;59.9517508303883;
1;LAMPE;Gemacht;p;0;3;3;9;p;1;1.3668858999990334;001;ASDG98;2019_Nov_28_1555;iat_vr;59.9517508303883;
1;COMPUTER;Gemacht;p;0;4;4;8;p;1;0.9839476000015566;001;ASDG98;2019_Nov_28_1555;iat_vr;59.9517508303883;
1;BAUM;Natur;q;0;5;5;0;q;1;1.0003438999992795;001;ASDG98;2019_Nov_28_1555;iat_vr;59.9517508303883;
1;TIER;Natur;q;0;6;6;3;q;1;1.1336397000013676;001;ASDG98;2019_Nov_28_1555;iat_vr;59.9517508303883;
1;WASSER;Natur;q;0;7;7;1;q;1;2.5515157999980147;001;ASDG98;2019_Nov_28_1555;iat_vr;59.9517508303883;
1;STEIN;Natur;q;0;8;8;4;q;1;0.8467778000012913;001;ASDG98;2019_Nov_28_1555;iat_vr;59.9517508303883;
1;BLUME;Natur;q;0;9;9;2;q;1;1.0480817999996361;001;ASDG98;2019_Nov_28_1555;iat_vr;59.9517508303883;
1;COMPUTER;Gemacht;p;1;0;10;8;p;1;1.3466484999989916;001;ASDG98;2019_Nov_28_1555;iat_vr;59.9517508303883;
1;LAMPE;Gemacht;p;1;1;11;9;p;1;1.448811599999317;001;ASDG98;2019_Nov_28_1555;iat_vr;59.9517508303883;
1;KLEIDER;Gemacht;p;1;2;12;7;p;1;1.2642443000004278;001;ASDG98;2019_Nov_28_1555;iat_vr;59.9517508303883;
1;BAUM;Natur;q;1;3;13;0;q;1;0.8957999000012933;001;ASDG98;2019_Nov_28_1555;iat_vr;59.9517508303883;
1;BLUME;Natur;q;1;4;14;2;q;1;0.8996791999998095;001;ASDG98;2019_Nov_28_1555;iat_vr;59.9517508303883;
1;GEBÄUDE;Gemacht;p;1;5;15;5;p;1;1.3633888000003935;001;ASDG98;2019_Nov_28_1555;iat_vr;59.9517508303883;
1;TIER;Natur;q;1;6;16;3;q;1;0.7989003000002413;001;ASDG98;2019_Nov_28_1555;iat_vr;59.9517508303883;
1;WASSER;Natur;q;1;7;17;1;q;1;1.2651954000029946;001;ASDG98;2019_Nov_28_1555;iat_vr;59.9517508303883;
1;STADT;Gemacht;p;1;8;18;6;p;1;1.8816708000013023;001;ASDG98;2019_Nov_28_1555;iat_vr;59.9517508303883;
1;STEIN;Natur;q;1;9;19;4;q;1;1.3486359999988053;001;ASDG98;2019_Nov_28_1555;iat_vr;59.9517508303883;
;;;;;;;;;;;001;ASDG98;2019_Nov_28_1555;iat_vr;59.9517508303883;
2;SCHLIMM;negativ;q;0;0;0;0;q;1;7.293416900000011;001;ASDG98;2019_Nov_28_1555;iat_vr;59.9517508303883;
2;SCHLECHT;negativ;q;0;1;1;1;q;1;0.7462680999997247;001;ASDG98;2019_Nov_28_1555;iat_vr;59.9517508303883;
2;SCHÄDLICH;negativ;q;0;2;2;3;q;1;0.9781236999988323;001;ASDG98;2019_Nov_28_1555;iat_vr;59.9517508303883;
2;NEGATIV;negativ;q;0;3;3;2;q;1;1.1930768999991415;001;ASDG98;2019_Nov_28_1555;iat_vr;59.9517508303883;
2;HERVORRAGEND;positiv;p;0;4;4;7;p;1;1.2462720000003173;001;ASDG98;2019_Nov_28_1555;iat_vr;59.9517508303883;
2;SCHWACH;negativ;q;0;5;5;4;q;1;1.1451057000012952;001;ASDG98;2019_Nov_28_1555;iat_vr;59.9517508303883;
2;AUSGEZEICHNET;positiv;p;0;6;6;5;p;1;2.99144460000025;001;ASDG98;2019_Nov_28_1555;iat_vr;59.9517508303883;
2;EINWANDFREI;positiv;p;0;7;7;6;p;1;1.9018431000004057;001;ASDG98;2019_Nov_28_1555;iat_vr;59.9517508303883;
2;GUT;positiv;p;0;8;8;9;p;1;0.5316012000002956;001;ASDG98;2019_Nov_28_1555;iat_vr;59.9517508303883;
2;POSITIV;positiv;p;0;9;9;8;p;1;0.6807996000025014;001;ASDG98;2019_Nov_28_1555;iat_vr;59.9517508303883;
2;AUSGEZEICHNET;positiv;p;1;0;10;5;p;1;0.9788512000013725;001;ASDG98;2019_Nov_28_1555;iat_vr;59.9517508303883;
2;SCHLIMM;negativ;q;1;1;11;0;q;1;1.8801252000012028;001;ASDG98;2019_Nov_28_1555;iat_vr;59.9517508303883;
2;HERVORRAGEND;positiv;p;1;2;12;7;p;1;0.6961838999995962;001;ASDG98;2019_Nov_28_1555;iat_vr;59.9517508303883;
2;SCHWACH;negativ;q;1;3;13;4;q;1;0.7362541999973473;001;ASDG98;2019_Nov_28_1555;iat_vr;59.9517508303883;
2;SCHLECHT;negativ;q;1;4;14;1;q;1;1.0805412999980035;001;ASDG98;2019_Nov_28_1555;iat_vr;59.9517508303883;
2;GUT;positiv;p;1;5;15;9;p;1;0.7188424999985727;001;ASDG98;2019_Nov_28_1555;iat_vr;59.9517508303883;
2;SCHÄDLICH;negativ;q;1;6;16;3;q;1;0.9406634000006306;001;ASDG98;2019_Nov_28_1555;iat_vr;59.9517508303883;
2;EINWANDFREI;positiv;p;1;7;17;6;p;1;0.9452205000015965;001;ASDG98;2019_Nov_28_1555;iat_vr;59.9517508303883;
2;POSITIV;positiv;p;1;8;18;8;p;1;0.7817395999991277;001;ASDG98;2019_Nov_28_1555;iat_vr;59.9517508303883;
2;NEGATIV;negativ;q;1;9;19;2;q;1;0.7815665999987687;001;ASDG98;2019_Nov_28_1555;iat_vr;59.9517508303883;
;;;;;;;;;;;001;ASDG98;2019_Nov_28_1555;iat_vr;59.9517508303883;
3;SCHÄDLICH;negativ;q;0;0;0;3;q;1;1.7842519000005268;001;ASDG98;2019_Nov_28_1555;iat_vr;59.9517508303883;
3;EINWANDFREI;positiv;p;0;1;1;6;p;1;1.6189947999992;001;ASDG98;2019_Nov_28_1555;iat_vr;59.9517508303883;
3;KLEIDER;Gemacht;p;0;2;2;17;p;1;2.9458981999996467;001;ASDG98;2019_Nov_28_1555;iat_vr;59.9517508303883;
3;STADT;Gemacht;p;0;3;3;16;p;1;0.731978200001322;001;ASDG98;2019_Nov_28_1555;iat_vr;59.9517508303883;
3;HERVORRAGEND;positiv;p;0;4;4;7;p;1;2.462402799999836;001;ASDG98;2019_Nov_28_1555;iat_vr;59.9517508303883;
3;GUT;positiv;p;0;5;5;9;p;1;0.8328561000016634;001;ASDG98;2019_Nov_28_1555;iat_vr;59.9517508303883;
3;SCHLIMM;negativ;q;0;6;6;0;q;1;0.6814598000019032;001;ASDG98;2019_Nov_28_1555;iat_vr;59.9517508303883;
3;SCHWACH;negativ;q;0;7;7;4;q;1;1.3811997000011615;001;ASDG98;2019_Nov_28_1555;iat_vr;59.9517508303883;
3;SCHLECHT;negativ;q;0;8;8;1;q;1;0.663983599999483;001;ASDG98;2019_Nov_28_1555;iat_vr;59.9517508303883;
3;GEBÄUDE;Gemacht;p;0;9;9;15;p;1;0.764624499999627;001;ASDG98;2019_Nov_28_1555;iat_vr;59.9517508303883;
3;BAUM;Natur;q;0;10;10;10;p;0;1.1659351000016613;001;ASDG98;2019_Nov_28_1555;iat_vr;59.9517508303883;
3;STEIN;Natur;q;0;11;11;14;q;1;3.20217920000141;001;ASDG98;2019_Nov_28_1555;iat_vr;59.9517508303883;
3;COMPUTER;Gemacht;p;0;12;12;18;p;1;1.0503634000015154;001;ASDG98;2019_Nov_28_1555;iat_vr;59.9517508303883;
3;NEGATIV;negativ;q;0;13;13;2;q;1;2.79749670000092;001;ASDG98;2019_Nov_28_1555;iat_vr;59.9517508303883;
3;POSITIV;positiv;p;0;14;14;8;p;1;0.8798774999995658;001;ASDG98;2019_Nov_28_1555;iat_vr;59.9517508303883;
3;AUSGEZEICHNET;positiv;p;0;15;15;5;p;1;3.7121676999995543;001;ASDG98;2019_Nov_28_1555;iat_vr;59.9517508303883;
3;TIER;Natur;q;0;16;16;13;q;1;1.7821578000002773;001;ASDG98;2019_Nov_28_1555;iat_vr;59.9517508303883;
3;LAMPE;Gemacht;p;0;17;17;19;p;1;0.798724600001151;001;ASDG98;2019_Nov_28_1555;iat_vr;59.9517508303883;
3;WASSER;Natur;q;0;18;18;11;q;1;0.7333306000000448;001;ASDG98;2019_Nov_28_1555;iat_vr;59.9517508303883;
3;BLUME;Natur;q;0;19;19;12;q;1;0.7297757000014826;001;ASDG98;2019_Nov_28_1555;iat_vr;59.9517508303883;
;;;;;;;;;;;001;ASDG98;2019_Nov_28_1555;iat_vr;59.9517508303883;
4;POSITIV;positiv;p;0;0;0;8;p;1;2.3762750000023516;001;ASDG98;2019_Nov_28_1555;iat_vr;59.9517508303883;
4;COMPUTER;Gemacht;p;0;1;1;18;p;1;1.1816725000026054;001;ASDG98;2019_Nov_28_1555;iat_vr;59.9517508303883;
4;AUSGEZEICHNET;positiv;p;0;2;2;5;p;1;2.2769900000021153;001;ASDG98;2019_Nov_28_1555;iat_vr;59.9517508303883;
4;EINWANDFREI;positiv;p;0;3;3;6;p;1;2.2945499000015843;001;ASDG98;2019_Nov_28_1555;iat_vr;59.9517508303883;
4;BLUME;Natur;q;0;4;4;12;q;1;0.8826235000015004;001;ASDG98;2019_Nov_28_1555;iat_vr;59.9517508303883;
4;BAUM;Natur;q;0;5;5;10;q;1;0.6487747999999556;001;ASDG98;2019_Nov_28_1555;iat_vr;59.9517508303883;
4;LAMPE;Gemacht;p;0;6;6;19;p;1;0.8519317999998748;001;ASDG98;2019_Nov_28_1555;iat_vr;59.9517508303883;
4;TIER;Natur;q;0;7;7;13;q;1;0.9339566999988165;001;ASDG98;2019_Nov_28_1555;iat_vr;59.9517508303883;
4;SCHWACH;negativ;q;0;8;8;4;q;1;0.9524818999998388;001;ASDG98;2019_Nov_28_1555;iat_vr;59.9517508303883;
4;GEBÄUDE;Gemacht;p;0;9;9;15;p;1;1.0812863999999536;001;ASDG98;2019_Nov_28_1555;iat_vr;59.9517508303883;
4;KLEIDER;Gemacht;p;0;10;10;17;p;1;0.8189266999979736;001;ASDG98;2019_Nov_28_1555;iat_vr;59.9517508303883;
4;WASSER;Natur;q;0;11;11;11;q;1;0.7641028000034567;001;ASDG98;2019_Nov_28_1555;iat_vr;59.9517508303883;
4;HERVORRAGEND;positiv;p;0;12;12;7;p;1;1.1480823999991117;001;ASDG98;2019_Nov_28_1555;iat_vr;59.9517508303883;
4;SCHLECHT;negativ;q;0;13;13;1;q;1;0.8148072000003594;001;ASDG98;2019_Nov_28_1555;iat_vr;59.9517508303883;
4;GUT;positiv;p;0;14;14;9;p;1;0.8169041000001016;001;ASDG98;2019_Nov_28_1555;iat_vr;59.9517508303883;
4;NEGATIV;negativ;q;0;15;15;2;q;1;0.7939592000002449;001;ASDG98;2019_Nov_28_1555;iat_vr;59.9517508303883;
4;SCHLIMM;negativ;q;0;16;16;0;q;1;1.5133800000003248;001;ASDG98;2019_Nov_28_1555;iat_vr;59.9517508303883;
4;SCHÄDLICH;negativ;q;0;17;17;3;q;1;0.6608531999991101;001;ASDG98;2019_Nov_28_1555;iat_vr;59.9517508303883;
4;STEIN;Natur;q;0;18;18;14;q;1;0.9127979999975651;001;ASDG98;2019_Nov_28_1555;iat_vr;59.9517508303883;
4;STADT;Gemacht;p;0;19;19;16;p;1;0.7482084999974177;001;ASDG98;2019_Nov_28_1555;iat_vr;59.9517508303883;
4;BLUME;Natur;q;1;0;20;12;q;1;0.7857404000023962;001;ASDG98;2019_Nov_28_1555;iat_vr;59.9517508303883;
4;GUT;positiv;p;1;1;21;9;p;1;0.7328391000010015;001;ASDG98;2019_Nov_28_1555;iat_vr;59.9517508303883;
4;EINWANDFREI;positiv;p;1;2;22;6;p;1;1.607966600000509;001;ASDG98;2019_Nov_28_1555;iat_vr;59.9517508303883;
4;BAUM;Natur;q;1;3;23;10;p;0;0.8486728999996558;001;ASDG98;2019_Nov_28_1555;iat_vr;59.9517508303883;
4;AUSGEZEICHNET;positiv;p;1;4;24;5;p;1;1.1615816999983508;001;ASDG98;2019_Nov_28_1555;iat_vr;59.9517508303883;
4;HERVORRAGEND;positiv;p;1;5;25;7;p;1;2.6459594999978435;001;ASDG98;2019_Nov_28_1555;iat_vr;59.9517508303883;
4;COMPUTER;Gemacht;p;1;6;26;18;p;1;1.2291367999969225;001;ASDG98;2019_Nov_28_1555;iat_vr;59.9517508303883;
4;SCHLECHT;negativ;q;1;7;27;1;q;1;0.9144646999993711;001;ASDG98;2019_Nov_28_1555;iat_vr;59.9517508303883;
4;STEIN;Natur;q;1;8;28;14;q;1;0.9824480000024778;001;ASDG98;2019_Nov_28_1555;iat_vr;59.9517508303883;
4;STADT;Gemacht;p;1;9;29;16;p;1;0.8484535999996297;001;ASDG98;2019_Nov_28_1555;iat_vr;59.9517508303883;
4;SCHWACH;negativ;q;1;10;30;4;q;1;1.1327375000000757;001;ASDG98;2019_Nov_28_1555;iat_vr;59.9517508303883;
4;GEBÄUDE;Gemacht;p;1;11;31;15;p;1;2.446577900002012;001;ASDG98;2019_Nov_28_1555;iat_vr;59.9517508303883;
4;TIER;Natur;q;1;12;32;13;q;1;0.9822248999989824;001;ASDG98;2019_Nov_28_1555;iat_vr;59.9517508303883;
4;SCHLIMM;negativ;q;1;13;33;0;q;1;1.4468000999986543;001;ASDG98;2019_Nov_28_1555;iat_vr;59.9517508303883;
4;NEGATIV;negativ;q;1;14;34;2;q;1;1.131038700001227;001;ASDG98;2019_Nov_28_1555;iat_vr;59.9517508303883;
4;WASSER;Natur;q;1;15;35;11;q;1;1.2586920999965514;001;ASDG98;2019_Nov_28_1555;iat_vr;59.9517508303883;
4;KLEIDER;Gemacht;p;1;16;36;17;p;1;1.3481962000005296;001;ASDG98;2019_Nov_28_1555;iat_vr;59.9517508303883;
4;SCHÄDLICH;negativ;q;1;17;37;3;q;1;2.2612425000006624;001;ASDG98;2019_Nov_28_1555;iat_vr;59.9517508303883;
4;POSITIV;positiv;p;1;18;38;8;p;1;0.8306941000009829;001;ASDG98;2019_Nov_28_1555;iat_vr;59.9517508303883;
4;LAMPE;Gemacht;p;1;19;39;19;p;1;1.232011500000226;001;ASDG98;2019_Nov_28_1555;iat_vr;59.9517508303883;
;;;;;;;;;;;001;ASDG98;2019_Nov_28_1555;iat_vr;59.9517508303883;
5;TIER;Natur;p;0;0;0;3;q;0;0.9888697999995202;001;ASDG98;2019_Nov_28_1555;iat_vr;59.9517508303883;
5;BLUME;Natur;p;0;1;1;2;p;1;3.214987799998198;001;ASDG98;2019_Nov_28_1555;iat_vr;59.9517508303883;
5;GEBÄUDE;Gemacht;q;0;2;2;5;q;1;1.4994110000006913;001;ASDG98;2019_Nov_28_1555;iat_vr;59.9517508303883;
5;COMPUTER;Gemacht;q;0;3;3;8;q;1;1.1629223999989335;001;ASDG98;2019_Nov_28_1555;iat_vr;59.9517508303883;
5;STEIN;Natur;p;0;4;4;4;p;1;0.9141509000000951;001;ASDG98;2019_Nov_28_1555;iat_vr;59.9517508303883;
5;KLEIDER;Gemacht;q;0;5;5;7;q;1;1.4956686999976228;001;ASDG98;2019_Nov_28_1555;iat_vr;59.9517508303883;
5;LAMPE;Gemacht;q;0;6;6;9;q;1;0.915350600000238;001;ASDG98;2019_Nov_28_1555;iat_vr;59.9517508303883;
5;STADT;Gemacht;q;0;7;7;6;q;1;0.7318691000000399;001;ASDG98;2019_Nov_28_1555;iat_vr;59.9517508303883;
5;WASSER;Natur;p;0;8;8;1;p;1;0.5685534000003827;001;ASDG98;2019_Nov_28_1555;iat_vr;59.9517508303883;
5;BAUM;Natur;p;0;9;9;0;p;1;0.7494560999984969;001;ASDG98;2019_Nov_28_1555;iat_vr;59.9517508303883;
5;KLEIDER;Gemacht;q;1;0;10;7;q;1;1.9469516999997722;001;ASDG98;2019_Nov_28_1555;iat_vr;59.9517508303883;
5;BAUM;Natur;p;1;1;11;0;p;1;0.8326691000002029;001;ASDG98;2019_Nov_28_1555;iat_vr;59.9517508303883;
5;STADT;Gemacht;q;1;2;12;6;q;1;0.9325003999983892;001;ASDG98;2019_Nov_28_1555;iat_vr;59.9517508303883;
5;LAMPE;Gemacht;q;1;3;13;9;q;1;0.8810380000031728;001;ASDG98;2019_Nov_28_1555;iat_vr;59.9517508303883;
5;COMPUTER;Gemacht;q;1;4;14;8;q;1;0.6791462000001047;001;ASDG98;2019_Nov_28_1555;iat_vr;59.9517508303883;
5;WASSER;Natur;p;1;5;15;1;p;1;0.5652511000007507;001;ASDG98;2019_Nov_28_1555;iat_vr;59.9517508303883;
5;TIER;Natur;p;1;6;16;3;p;1;0.582057800002076;001;ASDG98;2019_Nov_28_1555;iat_vr;59.9517508303883;
5;GEBÄUDE;Gemacht;q;1;7;17;5;q;1;0.696066399999836;001;ASDG98;2019_Nov_28_1555;iat_vr;59.9517508303883;
5;BLUME;Natur;p;1;8;18;2;p;1;0.6660262000004877;001;ASDG98;2019_Nov_28_1555;iat_vr;59.9517508303883;
5;STEIN;Natur;p;1;9;19;4;p;1;0.7520283000012569;001;ASDG98;2019_Nov_28_1555;iat_vr;59.9517508303883;
;;;;;;;;;;;001;ASDG98;2019_Nov_28_1555;iat_vr;59.9517508303883;
6;POSITIV;positiv;p;0;0;0;18;p;1;1.0143836999995983;001;ASDG98;2019_Nov_28_1555;iat_vr;59.9517508303883;
6;HERVORRAGEND;positiv;p;0;1;1;17;p;1;0.7788497000001371;001;ASDG98;2019_Nov_28_1555;iat_vr;59.9517508303883;
6;KLEIDER;Gemacht;q;0;2;2;7;q;1;1.0143884000026446;001;ASDG98;2019_Nov_28_1555;iat_vr;59.9517508303883;
6;COMPUTER;Gemacht;q;0;3;3;8;q;1;1.0639912000006007;001;ASDG98;2019_Nov_28_1555;iat_vr;59.9517508303883;
6;LAMPE;Gemacht;q;0;4;4;9;q;1;0.6976600000016333;001;ASDG98;2019_Nov_28_1555;iat_vr;59.9517508303883;
6;BAUM;Natur;p;0;5;5;0;p;1;0.6132918999974208;001;ASDG98;2019_Nov_28_1555;iat_vr;59.9517508303883;
6;SCHLIMM;negativ;q;0;6;6;10;q;1;1.0292311000011978;001;ASDG98;2019_Nov_28_1555;iat_vr;59.9517508303883;
6;NEGATIV;negativ;q;0;7;7;12;q;1;0.7295860000012908;001;ASDG98;2019_Nov_28_1555;iat_vr;59.9517508303883;
6;STEIN;Natur;p;0;8;8;4;q;0;0.8486434000005829;001;ASDG98;2019_Nov_28_1555;iat_vr;59.9517508303883;
6;GUT;positiv;p;0;9;9;19;p;1;1.4160143000008247;001;ASDG98;2019_Nov_28_1555;iat_vr;59.9517508303883;
6;AUSGEZEICHNET;positiv;p;0;10;10;15;p;1;0.9623687999992399;001;ASDG98;2019_Nov_28_1555;iat_vr;59.9517508303883;
6;BLUME;Natur;p;0;11;11;2;p;1;0.9007968999976583;001;ASDG98;2019_Nov_28_1555;iat_vr;59.9517508303883;
6;SCHWACH;negativ;q;0;12;12;14;q;1;1.4982098000000406;001;ASDG98;2019_Nov_28_1555;iat_vr;59.9517508303883;
6;EINWANDFREI;positiv;p;0;13;13;16;p;1;4.11140449999948;001;ASDG98;2019_Nov_28_1555;iat_vr;59.9517508303883;
6;SCHLECHT;negativ;q;0;14;14;11;q;1;1.5133854000014253;001;ASDG98;2019_Nov_28_1555;iat_vr;59.9517508303883;
6;STADT;Gemacht;q;0;15;15;6;q;1;2.085255699999834;001;ASDG98;2019_Nov_28_1555;iat_vr;59.9517508303883;
6;TIER;Natur;p;0;16;16;3;p;1;0.9804808999979286;001;ASDG98;2019_Nov_28_1555;iat_vr;59.9517508303883;
6;SCHÄDLICH;negativ;q;0;17;17;13;q;1;1.1626004000027024;001;ASDG98;2019_Nov_28_1555;iat_vr;59.9517508303883;
6;GEBÄUDE;Gemacht;q;0;18;18;5;q;1;1.264348599997902;001;ASDG98;2019_Nov_28_1555;iat_vr;59.9517508303883;
6;WASSER;Natur;p;0;19;19;1;p;1;0.9473147999997309;001;ASDG98;2019_Nov_28_1555;iat_vr;59.9517508303883;
;;;;;;;;;;;001;ASDG98;2019_Nov_28_1555;iat_vr;59.9517508303883;
7;SCHWACH;negativ;q;0;0;0;14;q;1;1.181829999997717;001;ASDG98;2019_Nov_28_1555;iat_vr;59.9517508303883;
7;SCHLECHT;negativ;q;0;1;1;11;q;1;0.8856513999999152;001;ASDG98;2019_Nov_28_1555;iat_vr;59.9517508303883;
7;GUT;positiv;p;0;2;2;19;q;0;0.7496360000004643;001;ASDG98;2019_Nov_28_1555;iat_vr;59.9517508303883;
7;LAMPE;Gemacht;q;0;3;3;9;q;1;3.58292259999871;001;ASDG98;2019_Nov_28_1555;iat_vr;59.9517508303883;
7;POSITIV;positiv;p;0;4;4;18;p;1;1.2980558999988716;001;ASDG98;2019_Nov_28_1555;iat_vr;59.9517508303883;
7;BLUME;Natur;p;0;5;5;2;p;1;2.531781300000148;001;ASDG98;2019_Nov_28_1555;iat_vr;59.9517508303883;
7;WASSER;Natur;p;0;6;6;1;p;1;0.680881500000396;001;ASDG98;2019_Nov_28_1555;iat_vr;59.9517508303883;
7;EINWANDFREI;positiv;p;0;7;7;16;p;1;0.9305453999986639;001;ASDG98;2019_Nov_28_1555;iat_vr;59.9517508303883;
7;GEBÄUDE;Gemacht;q;0;8;8;5;q;1;0.8307967000000644;001;ASDG98;2019_Nov_28_1555;iat_vr;59.9517508303883;
7;STEIN;Natur;p;0;9;9;4;p;1;0.7010402999985672;001;ASDG98;2019_Nov_28_1555;iat_vr;59.9517508303883;
7;NEGATIV;negativ;q;0;10;10;12;q;1;1.6456901999990805;001;ASDG98;2019_Nov_28_1555;iat_vr;59.9517508303883;
7;SCHLIMM;negativ;q;0;11;11;10;q;1;0.8133955000012065;001;ASDG98;2019_Nov_28_1555;iat_vr;59.9517508303883;
7;SCHÄDLICH;negativ;q;0;12;12;13;q;1;4.812581900001533;001;ASDG98;2019_Nov_28_1555;iat_vr;59.9517508303883;
7;KLEIDER;Gemacht;q;0;13;13;7;q;1;1.8269308999988425;001;ASDG98;2019_Nov_28_1555;iat_vr;59.9517508303883;
7;AUSGEZEICHNET;positiv;p;0;14;14;15;p;1;1.1104872999967483;001;ASDG98;2019_Nov_28_1555;iat_vr;59.9517508303883;
7;COMPUTER;Gemacht;q;0;15;15;8;p;0;2.965278199997556;001;ASDG98;2019_Nov_28_1555;iat_vr;59.9517508303883;
7;STADT;Gemacht;q;0;16;16;6;q;1;2.3646326000016415;001;ASDG98;2019_Nov_28_1555;iat_vr;59.9517508303883;
7;HERVORRAGEND;positiv;p;0;17;17;17;p;1;1.1443332999988343;001;ASDG98;2019_Nov_28_1555;iat_vr;59.9517508303883;
7;TIER;Natur;p;0;18;18;3;p;1;1.315815300000395;001;ASDG98;2019_Nov_28_1555;iat_vr;59.9517508303883;
7;BAUM;Natur;p;0;19;19;0;p;1;0.6685563999999431;001;ASDG98;2019_Nov_28_1555;iat_vr;59.9517508303883;
7;EINWANDFREI;positiv;p;1;0;20;16;p;1;3.462521800000104;001;ASDG98;2019_Nov_28_1555;iat_vr;59.9517508303883;
7;AUSGEZEICHNET;positiv;p;1;1;21;15;p;1;0.6177877000009175;001;ASDG98;2019_Nov_28_1555;iat_vr;59.9517508303883;
7;BLUME;Natur;p;1;2;22;2;p;1;1.329229099999793;001;ASDG98;2019_Nov_28_1555;iat_vr;59.9517508303883;
7;NEGATIV;negativ;q;1;3;23;12;q;1;1.1145734999990964;001;ASDG98;2019_Nov_28_1555;iat_vr;59.9517508303883;
7;STEIN;Natur;p;1;4;24;4;p;1;0.9140399999996589;001;ASDG98;2019_Nov_28_1555;iat_vr;59.9517508303883;
7;TIER;Natur;p;1;5;25;3;p;1;0.6830033000005642;001;ASDG98;2019_Nov_28_1555;iat_vr;59.9517508303883;
7;POSITIV;positiv;p;1;6;26;18;p;1;0.7691131999999925;001;ASDG98;2019_Nov_28_1555;iat_vr;59.9517508303883;
7;SCHLECHT;negativ;q;1;7;27;11;q;1;1.2763833999997587;001;ASDG98;2019_Nov_28_1555;iat_vr;59.9517508303883;
7;SCHLIMM;negativ;q;1;8;28;10;q;1;0.7475220000014815;001;ASDG98;2019_Nov_28_1555;iat_vr;59.9517508303883;
7;BAUM;Natur;p;1;9;29;0;p;1;0.8024197000013373;001;ASDG98;2019_Nov_28_1555;iat_vr;59.9517508303883;
7;LAMPE;Gemacht;q;1;10;30;9;q;1;0.8820777999972051;001;ASDG98;2019_Nov_28_1555;iat_vr;59.9517508303883;
7;COMPUTER;Gemacht;q;1;11;31;8;q;1;0.6975108000006003;001;ASDG98;2019_Nov_28_1555;iat_vr;59.9517508303883;
7;GEBÄUDE;Gemacht;q;1;12;32;5;q;1;0.629902900000161;001;ASDG98;2019_Nov_28_1555;iat_vr;59.9517508303883;
7;GUT;positiv;p;1;13;33;19;p;1;0.7993619000008039;001;ASDG98;2019_Nov_28_1555;iat_vr;59.9517508303883;
7;HERVORRAGEND;positiv;p;1;14;34;17;p;1;0.8439661000011256;001;ASDG98;2019_Nov_28_1555;iat_vr;59.9517508303883;
7;KLEIDER;Gemacht;q;1;15;35;7;q;1;0.9751770999973814;001;ASDG98;2019_Nov_28_1555;iat_vr;59.9517508303883;
7;SCHÄDLICH;negativ;q;1;16;36;13;p;0;1.0303050000002258;001;ASDG98;2019_Nov_28_1555;iat_vr;59.9517508303883;
7;SCHWACH;negativ;q;1;17;37;14;q;1;1.064161599999352;001;ASDG98;2019_Nov_28_1555;iat_vr;59.9517508303883;
7;STADT;Gemacht;q;1;18;38;6;q;1;1.9648056999976689;001;ASDG98;2019_Nov_28_1555;iat_vr;59.9517508303883;
7;WASSER;Natur;p;1;19;39;1;p;1;0.7801696999995329;001;ASDG98;2019_Nov_28_1555;iat_vr;59.9517508303883;
;;;;;;;;;;;001;ASDG98;2019_Nov_28_1555;iat_vr;59.9517508303883;
