Block;Word;Category;CorrResp;trials.thisRepN;trials.thisTrialN;trials.thisN;trials.thisIndex;key_resp_2.keys;key_resp_2.corr;key_resp_2.rt;session;participant;date;expName;frameRate;
1;TIER;Natur;q;0;0;0;3;q;1;0.861712300000363;002;ASFG97;2019_Nov_29_1603;iat_vr;60.06810521881308;
1;COMPUTER;Gemacht;p;0;1;1;8;p;1;0.560154999999213;002;ASFG97;2019_Nov_29_1603;iat_vr;60.06810521881308;
1;BAUM;Natur;q;0;2;2;0;q;1;0.5245746000000509;002;ASFG97;2019_Nov_29_1603;iat_vr;60.06810521881308;
1;BLUME;Natur;q;0;3;3;2;q;1;0.4336892999999691;002;ASFG97;2019_Nov_29_1603;iat_vr;60.06810521881308;
1;STEIN;Natur;q;0;4;4;4;q;1;0.40150100000028033;002;ASFG97;2019_Nov_29_1603;iat_vr;60.06810521881308;
1;STADT;Gemacht;p;0;5;5;6;p;1;0.6109787000023061;002;ASFG97;2019_Nov_29_1603;iat_vr;60.06810521881308;
1;GEBÄUDE;Gemacht;p;0;6;6;5;q;0;0.5355988000083016;002;ASFG97;2019_Nov_29_1603;iat_vr;60.06810521881308;
1;KLEIDER;Gemacht;p;0;7;7;7;p;1;1.1836468999972567;002;ASFG97;2019_Nov_29_1603;iat_vr;60.06810521881308;
1;WASSER;Natur;q;0;8;8;1;q;1;0.6142354000039632;002;ASFG97;2019_Nov_29_1603;iat_vr;60.06810521881308;
1;LAMPE;Gemacht;p;0;9;9;9;p;1;0.7665898999985075;002;ASFG97;2019_Nov_29_1603;iat_vr;60.06810521881308;
1;COMPUTER;Gemacht;p;1;0;10;8;p;1;0.6357786000007764;002;ASFG97;2019_Nov_29_1603;iat_vr;60.06810521881308;
1;TIER;Natur;q;1;1;11;3;q;1;0.5313565999967977;002;ASFG97;2019_Nov_29_1603;iat_vr;60.06810521881308;
1;BAUM;Natur;q;1;2;12;0;q;1;0.4343912000040291;002;ASFG97;2019_Nov_29_1603;iat_vr;60.06810521881308;
1;BLUME;Natur;q;1;3;13;2;q;1;0.46426310000242665;002;ASFG97;2019_Nov_29_1603;iat_vr;60.06810521881308;
1;STEIN;Natur;q;1;4;14;4;q;1;0.3960745000076713;002;ASFG97;2019_Nov_29_1603;iat_vr;60.06810521881308;
1;WASSER;Natur;q;1;5;15;1;q;1;0.6003039000061108;002;ASFG97;2019_Nov_29_1603;iat_vr;60.06810521881308;
1;STADT;Gemacht;p;1;6;16;6;p;1;0.5500016000005417;002;ASFG97;2019_Nov_29_1603;iat_vr;60.06810521881308;
1;KLEIDER;Gemacht;p;1;7;17;7;p;1;0.5617497999919578;002;ASFG97;2019_Nov_29_1603;iat_vr;60.06810521881308;
1;GEBÄUDE;Gemacht;p;1;8;18;5;p;1;0.5000990999978967;002;ASFG97;2019_Nov_29_1603;iat_vr;60.06810521881308;
1;LAMPE;Gemacht;p;1;9;19;9;p;1;0.6336647999996785;002;ASFG97;2019_Nov_29_1603;iat_vr;60.06810521881308;
;;;;;;;;;;;002;ASFG97;2019_Nov_29_1603;iat_vr;60.06810521881308;
2;SCHLIMM;negativ;q;0;0;0;0;q;1;1.3476311000122223;002;ASFG97;2019_Nov_29_1603;iat_vr;60.06810521881308;
2;GUT;positiv;p;0;1;1;9;p;1;0.7487124000035692;002;ASFG97;2019_Nov_29_1603;iat_vr;60.06810521881308;
2;SCHWACH;negativ;q;0;2;2;4;q;1;0.6983124999969732;002;ASFG97;2019_Nov_29_1603;iat_vr;60.06810521881308;
2;AUSGEZEICHNET;positiv;p;0;3;3;5;p;1;0.6836719999992056;002;ASFG97;2019_Nov_29_1603;iat_vr;60.06810521881308;
2;NEGATIV;negativ;q;0;4;4;2;q;1;0.8833940000040457;002;ASFG97;2019_Nov_29_1603;iat_vr;60.06810521881308;
2;SCHLECHT;negativ;q;0;5;5;1;q;1;0.5024100000009639;002;ASFG97;2019_Nov_29_1603;iat_vr;60.06810521881308;
2;EINWANDFREI;positiv;p;0;6;6;6;p;1;0.6932798000052571;002;ASFG97;2019_Nov_29_1603;iat_vr;60.06810521881308;
2;HERVORRAGEND;positiv;p;0;7;7;7;p;1;0.5502929000067525;002;ASFG97;2019_Nov_29_1603;iat_vr;60.06810521881308;
2;SCHÄDLICH;negativ;q;0;8;8;3;q;1;0.5330549999926006;002;ASFG97;2019_Nov_29_1603;iat_vr;60.06810521881308;
2;POSITIV;positiv;p;0;9;9;8;p;1;0.5113894000096479;002;ASFG97;2019_Nov_29_1603;iat_vr;60.06810521881308;
2;GUT;positiv;p;1;0;10;9;p;1;0.41750550000870135;002;ASFG97;2019_Nov_29_1603;iat_vr;60.06810521881308;
2;HERVORRAGEND;positiv;p;1;1;11;7;p;1;0.5689045000035549;002;ASFG97;2019_Nov_29_1603;iat_vr;60.06810521881308;
2;NEGATIV;negativ;q;1;2;12;2;q;1;0.527647099996102;002;ASFG97;2019_Nov_29_1603;iat_vr;60.06810521881308;
2;SCHLIMM;negativ;q;1;3;13;0;q;1;0.46610859999782406;002;ASFG97;2019_Nov_29_1603;iat_vr;60.06810521881308;
2;EINWANDFREI;positiv;p;1;4;14;6;p;1;0.5836696000042139;002;ASFG97;2019_Nov_29_1603;iat_vr;60.06810521881308;
2;SCHÄDLICH;negativ;q;1;5;15;3;q;1;0.5515003000036813;002;ASFG97;2019_Nov_29_1603;iat_vr;60.06810521881308;
2;SCHWACH;negativ;q;1;6;16;4;q;1;0.5497821000026306;002;ASFG97;2019_Nov_29_1603;iat_vr;60.06810521881308;
2;POSITIV;positiv;p;1;7;17;8;p;1;0.7687175000028219;002;ASFG97;2019_Nov_29_1603;iat_vr;60.06810521881308;
2;AUSGEZEICHNET;positiv;p;1;8;18;5;p;1;0.6284463999909349;002;ASFG97;2019_Nov_29_1603;iat_vr;60.06810521881308;
2;SCHLECHT;negativ;q;1;9;19;1;q;1;0.5448980999935884;002;ASFG97;2019_Nov_29_1603;iat_vr;60.06810521881308;
;;;;;;;;;;;002;ASFG97;2019_Nov_29_1603;iat_vr;60.06810521881308;
3;EINWANDFREI;positiv;p;0;0;0;6;p;1;1.2716748999955598;002;ASFG97;2019_Nov_29_1603;iat_vr;60.06810521881308;
3;KLEIDER;Gemacht;p;0;1;1;17;p;1;1.1341609999944922;002;ASFG97;2019_Nov_29_1603;iat_vr;60.06810521881308;
3;TIER;Natur;q;0;2;2;13;q;1;0.6504035999969346;002;ASFG97;2019_Nov_29_1603;iat_vr;60.06810521881308;
3;SCHÄDLICH;negativ;q;0;3;3;3;q;1;0.9501218999939738;002;ASFG97;2019_Nov_29_1603;iat_vr;60.06810521881308;
3;BLUME;Natur;q;0;4;4;12;q;1;0.6174466000084067;002;ASFG97;2019_Nov_29_1603;iat_vr;60.06810521881308;
3;WASSER;Natur;q;0;5;5;11;q;1;0.5642149999912363;002;ASFG97;2019_Nov_29_1603;iat_vr;60.06810521881308;
3;GEBÄUDE;Gemacht;p;0;6;6;15;p;1;0.6461821999982931;002;ASFG97;2019_Nov_29_1603;iat_vr;60.06810521881308;
3;SCHLECHT;negativ;q;0;7;7;1;q;1;1.215097300009802;002;ASFG97;2019_Nov_29_1603;iat_vr;60.06810521881308;
3;STEIN;Natur;q;0;8;8;14;q;1;0.8827084999938961;002;ASFG97;2019_Nov_29_1603;iat_vr;60.06810521881308;
3;POSITIV;positiv;p;0;9;9;8;p;1;0.6328097999939928;002;ASFG97;2019_Nov_29_1603;iat_vr;60.06810521881308;
3;HERVORRAGEND;positiv;p;0;10;10;7;p;1;0.73474700000952;002;ASFG97;2019_Nov_29_1603;iat_vr;60.06810521881308;
3;STADT;Gemacht;p;0;11;11;16;p;1;0.5838595999957761;002;ASFG97;2019_Nov_29_1603;iat_vr;60.06810521881308;
3;LAMPE;Gemacht;p;0;12;12;19;p;1;0.5700034999899799;002;ASFG97;2019_Nov_29_1603;iat_vr;60.06810521881308;
3;AUSGEZEICHNET;positiv;p;0;13;13;5;q;0;0.6425897000008263;002;ASFG97;2019_Nov_29_1603;iat_vr;60.06810521881308;
3;SCHWACH;negativ;q;0;14;14;4;q;1;1.1334922999958508;002;ASFG97;2019_Nov_29_1603;iat_vr;60.06810521881308;
3;NEGATIV;negativ;q;0;15;15;2;q;1;0.5968843000009656;002;ASFG97;2019_Nov_29_1603;iat_vr;60.06810521881308;
3;BAUM;Natur;q;0;16;16;10;q;1;0.5354736000008415;002;ASFG97;2019_Nov_29_1603;iat_vr;60.06810521881308;
3;GUT;positiv;p;0;17;17;9;p;1;0.7506575000006706;002;ASFG97;2019_Nov_29_1603;iat_vr;60.06810521881308;
3;COMPUTER;Gemacht;p;0;18;18;18;p;1;0.6311256999906618;002;ASFG97;2019_Nov_29_1603;iat_vr;60.06810521881308;
3;SCHLIMM;negativ;q;0;19;19;0;q;1;0.9808461999928113;002;ASFG97;2019_Nov_29_1603;iat_vr;60.06810521881308;
;;;;;;;;;;;002;ASFG97;2019_Nov_29_1603;iat_vr;60.06810521881308;
4;COMPUTER;Gemacht;p;0;0;0;18;p;1;0.8123294999968493;002;ASFG97;2019_Nov_29_1603;iat_vr;60.06810521881308;
4;SCHLIMM;negativ;q;0;1;1;0;q;1;0.5669925000111107;002;ASFG97;2019_Nov_29_1603;iat_vr;60.06810521881308;
4;AUSGEZEICHNET;positiv;p;0;2;2;5;p;1;0.6522932000079891;002;ASFG97;2019_Nov_29_1603;iat_vr;60.06810521881308;
4;STEIN;Natur;q;0;3;3;14;q;1;0.6850115999986883;002;ASFG97;2019_Nov_29_1603;iat_vr;60.06810521881308;
4;EINWANDFREI;positiv;p;0;4;4;6;p;1;0.6804832000052556;002;ASFG97;2019_Nov_29_1603;iat_vr;60.06810521881308;
4;POSITIV;positiv;p;0;5;5;8;p;1;1.149627299993881;002;ASFG97;2019_Nov_29_1603;iat_vr;60.06810521881308;
4;STADT;Gemacht;p;0;6;6;16;p;1;0.6475024000101257;002;ASFG97;2019_Nov_29_1603;iat_vr;60.06810521881308;
4;LAMPE;Gemacht;p;0;7;7;19;p;1;0.6490833999996539;002;ASFG97;2019_Nov_29_1603;iat_vr;60.06810521881308;
4;WASSER;Natur;q;0;8;8;11;q;1;0.6188936999969883;002;ASFG97;2019_Nov_29_1603;iat_vr;60.06810521881308;
4;GUT;positiv;p;0;9;9;9;p;1;0.6298221999895759;002;ASFG97;2019_Nov_29_1603;iat_vr;60.06810521881308;
4;BLUME;Natur;q;0;10;10;12;q;1;1.1800404000096023;002;ASFG97;2019_Nov_29_1603;iat_vr;60.06810521881308;
4;NEGATIV;negativ;q;0;11;11;2;q;1;1.4252855000086129;002;ASFG97;2019_Nov_29_1603;iat_vr;60.06810521881308;
4;SCHLECHT;negativ;q;0;12;12;1;q;1;0.7798855000000913;002;ASFG97;2019_Nov_29_1603;iat_vr;60.06810521881308;
4;SCHÄDLICH;negativ;q;0;13;13;3;q;1;0.5351154999952996;002;ASFG97;2019_Nov_29_1603;iat_vr;60.06810521881308;
4;TIER;Natur;q;0;14;14;13;q;1;0.6160181000013836;002;ASFG97;2019_Nov_29_1603;iat_vr;60.06810521881308;
4;BAUM;Natur;q;0;15;15;10;q;1;0.5167255999986082;002;ASFG97;2019_Nov_29_1603;iat_vr;60.06810521881308;
4;HERVORRAGEND;positiv;p;0;16;16;7;p;1;0.5683749000017997;002;ASFG97;2019_Nov_29_1603;iat_vr;60.06810521881308;
4;KLEIDER;Gemacht;p;0;17;17;17;p;1;0.5506828999932623;002;ASFG97;2019_Nov_29_1603;iat_vr;60.06810521881308;
4;SCHWACH;negativ;q;0;18;18;4;q;1;0.6008832000079565;002;ASFG97;2019_Nov_29_1603;iat_vr;60.06810521881308;
4;GEBÄUDE;Gemacht;p;0;19;19;15;p;1;0.5992419000103837;002;ASFG97;2019_Nov_29_1603;iat_vr;60.06810521881308;
4;BLUME;Natur;q;1;0;20;12;q;1;0.568536499995389;002;ASFG97;2019_Nov_29_1603;iat_vr;60.06810521881308;
4;NEGATIV;negativ;q;1;1;21;2;p;0;0.7121920000063255;002;ASFG97;2019_Nov_29_1603;iat_vr;60.06810521881308;
4;AUSGEZEICHNET;positiv;p;1;2;22;5;p;1;1.3089980999939144;002;ASFG97;2019_Nov_29_1603;iat_vr;60.06810521881308;
4;EINWANDFREI;positiv;p;1;3;23;6;p;1;0.6669664000073681;002;ASFG97;2019_Nov_29_1603;iat_vr;60.06810521881308;
4;SCHÄDLICH;negativ;q;1;4;24;3;q;1;0.6019863999972586;002;ASFG97;2019_Nov_29_1603;iat_vr;60.06810521881308;
4;STEIN;Natur;q;1;5;25;14;q;1;0.5482549000007566;002;ASFG97;2019_Nov_29_1603;iat_vr;60.06810521881308;
4;POSITIV;positiv;p;1;6;26;8;p;1;1.3022349999955622;002;ASFG97;2019_Nov_29_1603;iat_vr;60.06810521881308;
4;COMPUTER;Gemacht;p;1;7;27;18;p;1;0.596482000008109;002;ASFG97;2019_Nov_29_1603;iat_vr;60.06810521881308;
4;SCHLECHT;negativ;q;1;8;28;1;q;1;0.6651197000028333;002;ASFG97;2019_Nov_29_1603;iat_vr;60.06810521881308;
4;WASSER;Natur;q;1;9;29;11;q;1;0.6007372999883955;002;ASFG97;2019_Nov_29_1603;iat_vr;60.06810521881308;
4;SCHWACH;negativ;q;1;10;30;4;q;1;0.7814096999936737;002;ASFG97;2019_Nov_29_1603;iat_vr;60.06810521881308;
4;LAMPE;Gemacht;p;1;11;31;19;p;1;0.6155096000002231;002;ASFG97;2019_Nov_29_1603;iat_vr;60.06810521881308;
4;STADT;Gemacht;p;1;12;32;16;p;1;0.5480622000031872;002;ASFG97;2019_Nov_29_1603;iat_vr;60.06810521881308;
4;KLEIDER;Gemacht;p;1;13;33;17;p;1;0.5805610999959754;002;ASFG97;2019_Nov_29_1603;iat_vr;60.06810521881308;
4;SCHLIMM;negativ;q;1;14;34;0;q;1;0.5798566000012215;002;ASFG97;2019_Nov_29_1603;iat_vr;60.06810521881308;
4;BAUM;Natur;q;1;15;35;10;q;1;0.628456799997366;002;ASFG97;2019_Nov_29_1603;iat_vr;60.06810521881308;
4;TIER;Natur;q;1;16;36;13;q;1;0.5667222000047332;002;ASFG97;2019_Nov_29_1603;iat_vr;60.06810521881308;
4;GEBÄUDE;Gemacht;p;1;17;37;15;p;1;0.6129913000040688;002;ASFG97;2019_Nov_29_1603;iat_vr;60.06810521881308;
4;GUT;positiv;p;1;18;38;9;q;0;0.7514422999956878;002;ASFG97;2019_Nov_29_1603;iat_vr;60.06810521881308;
4;HERVORRAGEND;positiv;p;1;19;39;7;p;1;1.245551500003785;002;ASFG97;2019_Nov_29_1603;iat_vr;60.06810521881308;
;;;;;;;;;;;002;ASFG97;2019_Nov_29_1603;iat_vr;60.06810521881308;
5;STADT;Gemacht;q;0;0;0;6;q;1;1.5809163999947486;002;ASFG97;2019_Nov_29_1603;iat_vr;60.06810521881308;
5;TIER;Natur;p;0;1;1;3;p;1;0.6499858000024687;002;ASFG97;2019_Nov_29_1603;iat_vr;60.06810521881308;
5;BLUME;Natur;p;0;2;2;2;p;1;0.5827930999948876;002;ASFG97;2019_Nov_29_1603;iat_vr;60.06810521881308;
5;STEIN;Natur;p;0;3;3;4;p;1;0.6168658000096912;002;ASFG97;2019_Nov_29_1603;iat_vr;60.06810521881308;
5;WASSER;Natur;p;0;4;4;1;p;1;0.564837300000363;002;ASFG97;2019_Nov_29_1603;iat_vr;60.06810521881308;
5;BAUM;Natur;p;0;5;5;0;p;1;0.7660081999929389;002;ASFG97;2019_Nov_29_1603;iat_vr;60.06810521881308;
5;KLEIDER;Gemacht;q;0;6;6;7;q;1;0.5512837999995099;002;ASFG97;2019_Nov_29_1603;iat_vr;60.06810521881308;
5;LAMPE;Gemacht;q;0;7;7;9;q;1;0.5674869999929797;002;ASFG97;2019_Nov_29_1603;iat_vr;60.06810521881308;
5;GEBÄUDE;Gemacht;q;0;8;8;5;q;1;0.585921399993822;002;ASFG97;2019_Nov_29_1603;iat_vr;60.06810521881308;
5;COMPUTER;Gemacht;q;0;9;9;8;q;1;0.5123431999963941;002;ASFG97;2019_Nov_29_1603;iat_vr;60.06810521881308;
5;BAUM;Natur;p;1;0;10;0;p;1;0.6668958999944152;002;ASFG97;2019_Nov_29_1603;iat_vr;60.06810521881308;
5;TIER;Natur;p;1;1;11;3;p;1;0.49684620001062285;002;ASFG97;2019_Nov_29_1603;iat_vr;60.06810521881308;
5;STEIN;Natur;p;1;2;12;4;p;1;0.4848312999965856;002;ASFG97;2019_Nov_29_1603;iat_vr;60.06810521881308;
5;GEBÄUDE;Gemacht;q;1;3;13;5;q;1;0.6338583000033395;002;ASFG97;2019_Nov_29_1603;iat_vr;60.06810521881308;
5;KLEIDER;Gemacht;q;1;4;14;7;p;0;0.60159800000838;002;ASFG97;2019_Nov_29_1603;iat_vr;60.06810521881308;
5;BLUME;Natur;p;1;5;15;2;p;1;1.3649092999985442;002;ASFG97;2019_Nov_29_1603;iat_vr;60.06810521881308;
5;STADT;Gemacht;q;1;6;16;6;q;1;0.5486655999993673;002;ASFG97;2019_Nov_29_1603;iat_vr;60.06810521881308;
5;LAMPE;Gemacht;q;1;7;17;9;q;1;0.5938948999973945;002;ASFG97;2019_Nov_29_1603;iat_vr;60.06810521881308;
5;WASSER;Natur;p;1;8;18;1;p;1;0.6331688999925973;002;ASFG97;2019_Nov_29_1603;iat_vr;60.06810521881308;
5;COMPUTER;Gemacht;q;1;9;19;8;q;1;0.7670103999989806;002;ASFG97;2019_Nov_29_1603;iat_vr;60.06810521881308;
;;;;;;;;;;;002;ASFG97;2019_Nov_29_1603;iat_vr;60.06810521881308;
6;BAUM;Natur;p;0;0;0;0;p;1;1.4050713000033284;002;ASFG97;2019_Nov_29_1603;iat_vr;60.06810521881308;
6;KLEIDER;Gemacht;q;0;1;1;7;q;1;0.6964669999870239;002;ASFG97;2019_Nov_29_1603;iat_vr;60.06810521881308;
6;WASSER;Natur;p;0;2;2;1;p;1;0.6334739000012632;002;ASFG97;2019_Nov_29_1603;iat_vr;60.06810521881308;
6;HERVORRAGEND;positiv;p;0;3;3;17;p;1;0.5756269999983488;002;ASFG97;2019_Nov_29_1603;iat_vr;60.06810521881308;
6;STADT;Gemacht;q;0;4;4;6;q;1;1.0315961000014795;002;ASFG97;2019_Nov_29_1603;iat_vr;60.06810521881308;
6;SCHLIMM;negativ;q;0;5;5;10;q;1;0.547046900013811;002;ASFG97;2019_Nov_29_1603;iat_vr;60.06810521881308;
6;EINWANDFREI;positiv;p;0;6;6;16;p;1;0.6996783000067808;002;ASFG97;2019_Nov_29_1603;iat_vr;60.06810521881308;
6;NEGATIV;negativ;q;0;7;7;12;q;1;0.6004520999995293;002;ASFG97;2019_Nov_29_1603;iat_vr;60.06810521881308;
6;TIER;Natur;p;0;8;8;3;p;1;0.5165257000044221;002;ASFG97;2019_Nov_29_1603;iat_vr;60.06810521881308;
6;GUT;positiv;p;0;9;9;19;p;1;0.566768000004231;002;ASFG97;2019_Nov_29_1603;iat_vr;60.06810521881308;
6;LAMPE;Gemacht;q;0;10;10;9;q;1;0.5679009999876143;002;ASFG97;2019_Nov_29_1603;iat_vr;60.06810521881308;
6;BLUME;Natur;p;0;11;11;2;p;1;0.6301151999941794;002;ASFG97;2019_Nov_29_1603;iat_vr;60.06810521881308;
6;COMPUTER;Gemacht;q;0;12;12;8;q;1;0.6189337000105297;002;ASFG97;2019_Nov_29_1603;iat_vr;60.06810521881308;
6;AUSGEZEICHNET;positiv;p;0;13;13;15;p;1;0.5811599000007845;002;ASFG97;2019_Nov_29_1603;iat_vr;60.06810521881308;
6;POSITIV;positiv;p;0;14;14;18;p;1;0.6838988000090467;002;ASFG97;2019_Nov_29_1603;iat_vr;60.06810521881308;
6;SCHLECHT;negativ;q;0;15;15;11;q;1;0.6185895999951754;002;ASFG97;2019_Nov_29_1603;iat_vr;60.06810521881308;
6;STEIN;Natur;p;0;16;16;4;p;1;0.7148190000007162;002;ASFG97;2019_Nov_29_1603;iat_vr;60.06810521881308;
6;GEBÄUDE;Gemacht;q;0;17;17;5;q;1;0.6825346000114223;002;ASFG97;2019_Nov_29_1603;iat_vr;60.06810521881308;
6;SCHWACH;negativ;q;0;18;18;14;q;1;0.8026523000007728;002;ASFG97;2019_Nov_29_1603;iat_vr;60.06810521881308;
6;SCHÄDLICH;negativ;q;0;19;19;13;q;1;0.49213689999305643;002;ASFG97;2019_Nov_29_1603;iat_vr;60.06810521881308;
;;;;;;;;;;;002;ASFG97;2019_Nov_29_1603;iat_vr;60.06810521881308;
7;BAUM;Natur;p;0;0;0;0;p;1;0.8486231999995653;002;ASFG97;2019_Nov_29_1603;iat_vr;60.06810521881308;
7;GEBÄUDE;Gemacht;q;0;1;1;5;q;1;0.5643830000044545;002;ASFG97;2019_Nov_29_1603;iat_vr;60.06810521881308;
7;COMPUTER;Gemacht;q;0;2;2;8;q;1;0.6158753000054276;002;ASFG97;2019_Nov_29_1603;iat_vr;60.06810521881308;
7;LAMPE;Gemacht;q;0;3;3;9;q;1;0.5850459999928717;002;ASFG97;2019_Nov_29_1603;iat_vr;60.06810521881308;
7;STADT;Gemacht;q;0;4;4;6;q;1;0.6851904999930412;002;ASFG97;2019_Nov_29_1603;iat_vr;60.06810521881308;
7;TIER;Natur;p;0;5;5;3;p;1;0.546893499995349;002;ASFG97;2019_Nov_29_1603;iat_vr;60.06810521881308;
7;EINWANDFREI;positiv;p;0;6;6;16;p;1;0.5689617000025464;002;ASFG97;2019_Nov_29_1603;iat_vr;60.06810521881308;
7;SCHLIMM;negativ;q;0;7;7;10;q;1;0.5642481999966549;002;ASFG97;2019_Nov_29_1603;iat_vr;60.06810521881308;
7;KLEIDER;Gemacht;q;0;8;8;7;q;1;0.5621709999977611;002;ASFG97;2019_Nov_29_1603;iat_vr;60.06810521881308;
7;SCHLECHT;negativ;q;0;9;9;11;q;1;0.5995198000018718;002;ASFG97;2019_Nov_29_1603;iat_vr;60.06810521881308;
7;HERVORRAGEND;positiv;p;0;10;10;17;p;1;0.5475046999927144;002;ASFG97;2019_Nov_29_1603;iat_vr;60.06810521881308;
7;WASSER;Natur;p;0;11;11;1;p;1;0.6521252999955323;002;ASFG97;2019_Nov_29_1603;iat_vr;60.06810521881308;
7;STEIN;Natur;p;0;12;12;4;p;1;0.6304184000036912;002;ASFG97;2019_Nov_29_1603;iat_vr;60.06810521881308;
7;SCHWACH;negativ;q;0;13;13;14;q;1;0.5519965999992564;002;ASFG97;2019_Nov_29_1603;iat_vr;60.06810521881308;
7;GUT;positiv;p;0;14;14;19;p;1;0.5667627000075299;002;ASFG97;2019_Nov_29_1603;iat_vr;60.06810521881308;
7;NEGATIV;negativ;q;0;15;15;12;q;1;0.5829812999872956;002;ASFG97;2019_Nov_29_1603;iat_vr;60.06810521881308;
7;POSITIV;positiv;p;0;16;16;18;p;1;0.5852143999945838;002;ASFG97;2019_Nov_29_1603;iat_vr;60.06810521881308;
7;AUSGEZEICHNET;positiv;p;0;17;17;15;p;1;0.5736275000090245;002;ASFG97;2019_Nov_29_1603;iat_vr;60.06810521881308;
7;SCHÄDLICH;negativ;q;0;18;18;13;q;1;0.5787214000010863;002;ASFG97;2019_Nov_29_1603;iat_vr;60.06810521881308;
7;BLUME;Natur;p;0;19;19;2;p;1;0.5180117999989307;002;ASFG97;2019_Nov_29_1603;iat_vr;60.06810521881308;
7;SCHÄDLICH;negativ;q;1;0;20;13;q;1;0.6491735000017798;002;ASFG97;2019_Nov_29_1603;iat_vr;60.06810521881308;
7;TIER;Natur;p;1;1;21;3;p;1;0.5173240000003716;002;ASFG97;2019_Nov_29_1603;iat_vr;60.06810521881308;
7;LAMPE;Gemacht;q;1;2;22;9;q;1;0.585737400004291;002;ASFG97;2019_Nov_29_1603;iat_vr;60.06810521881308;
7;EINWANDFREI;positiv;p;1;3;23;16;p;1;0.5085095999966143;002;ASFG97;2019_Nov_29_1603;iat_vr;60.06810521881308;
7;BLUME;Natur;p;1;4;24;2;p;1;0.6002384999883361;002;ASFG97;2019_Nov_29_1603;iat_vr;60.06810521881308;
7;BAUM;Natur;p;1;5;25;0;p;1;0.5351210000080755;002;ASFG97;2019_Nov_29_1603;iat_vr;60.06810521881308;
7;KLEIDER;Gemacht;q;1;6;26;7;q;1;0.5458847999980208;002;ASFG97;2019_Nov_29_1603;iat_vr;60.06810521881308;
7;STEIN;Natur;p;1;7;27;4;p;1;0.45013150000886526;002;ASFG97;2019_Nov_29_1603;iat_vr;60.06810521881308;
7;HERVORRAGEND;positiv;p;1;8;28;17;p;1;0.6191504999878816;002;ASFG97;2019_Nov_29_1603;iat_vr;60.06810521881308;
7;SCHLECHT;negativ;q;1;9;29;11;q;1;0.5653034999995725;002;ASFG97;2019_Nov_29_1603;iat_vr;60.06810521881308;
7;AUSGEZEICHNET;positiv;p;1;10;30;15;p;1;0.5084789000102319;002;ASFG97;2019_Nov_29_1603;iat_vr;60.06810521881308;
7;WASSER;Natur;p;1;11;31;1;p;1;0.579449900003965;002;ASFG97;2019_Nov_29_1603;iat_vr;60.06810521881308;
7;GUT;positiv;p;1;12;32;19;p;1;0.49710060001234524;002;ASFG97;2019_Nov_29_1603;iat_vr;60.06810521881308;
7;SCHLIMM;negativ;q;1;13;33;10;q;1;0.5001688000047579;002;ASFG97;2019_Nov_29_1603;iat_vr;60.06810521881308;
7;GEBÄUDE;Gemacht;q;1;14;34;5;q;1;0.526879299999564;002;ASFG97;2019_Nov_29_1603;iat_vr;60.06810521881308;
7;STADT;Gemacht;q;1;15;35;6;q;1;0.8000666000007186;002;ASFG97;2019_Nov_29_1603;iat_vr;60.06810521881308;
7;SCHWACH;negativ;q;1;16;36;14;q;1;0.6816477000102168;002;ASFG97;2019_Nov_29_1603;iat_vr;60.06810521881308;
7;POSITIV;positiv;p;1;17;37;18;p;1;0.5190607999975327;002;ASFG97;2019_Nov_29_1603;iat_vr;60.06810521881308;
7;NEGATIV;negativ;q;1;18;38;12;q;1;0.4808816000004299;002;ASFG97;2019_Nov_29_1603;iat_vr;60.06810521881308;
7;COMPUTER;Gemacht;q;1;19;39;8;q;1;0.6653908000007505;002;ASFG97;2019_Nov_29_1603;iat_vr;60.06810521881308;
;;;;;;;;;;;002;ASFG97;2019_Nov_29_1603;iat_vr;60.06810521881308;
