Block;Word;Category;CorrResp;trials.thisRepN;trials.thisTrialN;trials.thisN;trials.thisIndex;key_resp_2.keys;key_resp_2.corr;key_resp_2.rt;session;participant;date;expName;frameRate;
1;BLUME;Natur;q;0;0;0;2;q;1;5.373413700002857;001;ASHK62;2019_Nov_28_1426;iat_vr;59.98458396281291;
1;WASSER;Natur;q;0;1;1;1;q;1;1.4997175999997125;001;ASHK62;2019_Nov_28_1426;iat_vr;59.98458396281291;
1;GEBÄUDE;Gemacht;p;0;2;2;5;p;1;0.9199776000023121;001;ASHK62;2019_Nov_28_1426;iat_vr;59.98458396281291;
1;STADT;Gemacht;p;0;3;3;6;p;1;0.8623968000028981;001;ASHK62;2019_Nov_28_1426;iat_vr;59.98458396281291;
1;LAMPE;Gemacht;p;0;4;4;9;p;1;0.861187800001062;001;ASHK62;2019_Nov_28_1426;iat_vr;59.98458396281291;
1;KLEIDER;Gemacht;p;0;5;5;7;p;1;0.7768587000027765;001;ASHK62;2019_Nov_28_1426;iat_vr;59.98458396281291;
1;COMPUTER;Gemacht;p;0;6;6;8;p;1;0.9239154999995662;001;ASHK62;2019_Nov_28_1426;iat_vr;59.98458396281291;
1;BAUM;Natur;q;0;7;7;0;q;1;0.9646969000023091;001;ASHK62;2019_Nov_28_1426;iat_vr;59.98458396281291;
1;STEIN;Natur;q;0;8;8;4;q;1;0.8598192999997991;001;ASHK62;2019_Nov_28_1426;iat_vr;59.98458396281291;
1;TIER;Natur;q;0;9;9;3;q;1;1.1148893999998108;001;ASHK62;2019_Nov_28_1426;iat_vr;59.98458396281291;
1;TIER;Natur;q;1;0;10;3;q;1;0.9655515000013111;001;ASHK62;2019_Nov_28_1426;iat_vr;59.98458396281291;
1;KLEIDER;Gemacht;p;1;1;11;7;p;1;0.9309658000020136;001;ASHK62;2019_Nov_28_1426;iat_vr;59.98458396281291;
1;COMPUTER;Gemacht;p;1;2;12;8;p;1;0.7956091999985802;001;ASHK62;2019_Nov_28_1426;iat_vr;59.98458396281291;
1;STEIN;Natur;q;1;3;13;4;q;1;1.513929900000221;001;ASHK62;2019_Nov_28_1426;iat_vr;59.98458396281291;
1;GEBÄUDE;Gemacht;p;1;4;14;5;p;1;0.8983376000032877;001;ASHK62;2019_Nov_28_1426;iat_vr;59.98458396281291;
1;BLUME;Natur;q;1;5;15;2;q;1;1.0316885000029288;001;ASHK62;2019_Nov_28_1426;iat_vr;59.98458396281291;
1;BAUM;Natur;q;1;6;16;0;q;1;0.8483321000021533;001;ASHK62;2019_Nov_28_1426;iat_vr;59.98458396281291;
1;STADT;Gemacht;p;1;7;17;6;p;1;0.813659399998869;001;ASHK62;2019_Nov_28_1426;iat_vr;59.98458396281291;
1;LAMPE;Gemacht;p;1;8;18;9;p;1;0.8156254000023182;001;ASHK62;2019_Nov_28_1426;iat_vr;59.98458396281291;
1;WASSER;Natur;q;1;9;19;1;q;1;0.9472466999977769;001;ASHK62;2019_Nov_28_1426;iat_vr;59.98458396281291;
;;;;;;;;;;;001;ASHK62;2019_Nov_28_1426;iat_vr;59.98458396281291;
2;SCHLIMM;negativ;q;0;0;0;0;q;1;6.976608199998736;001;ASHK62;2019_Nov_28_1426;iat_vr;59.98458396281291;
2;GUT;positiv;p;0;1;1;9;p;1;1.098607700001594;001;ASHK62;2019_Nov_28_1426;iat_vr;59.98458396281291;
2;SCHLECHT;negativ;q;0;2;2;1;q;1;1.1810984000003373;001;ASHK62;2019_Nov_28_1426;iat_vr;59.98458396281291;
2;EINWANDFREI;positiv;p;0;3;3;6;p;1;2.958316100000957;001;ASHK62;2019_Nov_28_1426;iat_vr;59.98458396281291;
2;NEGATIV;negativ;q;0;4;4;2;q;1;2.7355663999987883;001;ASHK62;2019_Nov_28_1426;iat_vr;59.98458396281291;
2;SCHWACH;negativ;q;0;5;5;4;q;1;1.9643662000016775;001;ASHK62;2019_Nov_28_1426;iat_vr;59.98458396281291;
2;AUSGEZEICHNET;positiv;p;0;6;6;5;p;1;1.2228461999984575;001;ASHK62;2019_Nov_28_1426;iat_vr;59.98458396281291;
2;POSITIV;positiv;p;0;7;7;8;p;1;1.2186476999995648;001;ASHK62;2019_Nov_28_1426;iat_vr;59.98458396281291;
2;SCHÄDLICH;negativ;q;0;8;8;3;q;1;1.0244232000004558;001;ASHK62;2019_Nov_28_1426;iat_vr;59.98458396281291;
2;HERVORRAGEND;positiv;p;0;9;9;7;p;1;0.8942616999993334;001;ASHK62;2019_Nov_28_1426;iat_vr;59.98458396281291;
2;NEGATIV;negativ;q;1;0;10;2;q;1;3.3142454000008;001;ASHK62;2019_Nov_28_1426;iat_vr;59.98458396281291;
2;SCHLECHT;negativ;q;1;1;11;1;q;1;1.2292311000019254;001;ASHK62;2019_Nov_28_1426;iat_vr;59.98458396281291;
2;GUT;positiv;p;1;2;12;9;p;1;0.8522488000016892;001;ASHK62;2019_Nov_28_1426;iat_vr;59.98458396281291;
2;SCHÄDLICH;negativ;q;1;3;13;3;q;1;2.5647819000005256;001;ASHK62;2019_Nov_28_1426;iat_vr;59.98458396281291;
2;SCHLIMM;negativ;q;1;4;14;0;q;1;0.6645845000020927;001;ASHK62;2019_Nov_28_1426;iat_vr;59.98458396281291;
2;AUSGEZEICHNET;positiv;p;1;5;15;5;p;1;0.9191446000004362;001;ASHK62;2019_Nov_28_1426;iat_vr;59.98458396281291;
2;EINWANDFREI;positiv;p;1;6;16;6;p;1;0.985799499998393;001;ASHK62;2019_Nov_28_1426;iat_vr;59.98458396281291;
2;POSITIV;positiv;p;1;7;17;8;p;1;1.0985973999995622;001;ASHK62;2019_Nov_28_1426;iat_vr;59.98458396281291;
2;SCHWACH;negativ;q;1;8;18;4;q;1;2.7476513000001432;001;ASHK62;2019_Nov_28_1426;iat_vr;59.98458396281291;
2;HERVORRAGEND;positiv;p;1;9;19;7;p;1;1.1771645999979228;001;ASHK62;2019_Nov_28_1426;iat_vr;59.98458396281291;
;;;;;;;;;;;001;ASHK62;2019_Nov_28_1426;iat_vr;59.98458396281291;
3;SCHLECHT;negativ;q;0;0;0;1;q;1;2.3148880999979156;001;ASHK62;2019_Nov_28_1426;iat_vr;59.98458396281291;
3;KLEIDER;Gemacht;p;0;1;1;17;p;1;4.64602240000022;001;ASHK62;2019_Nov_28_1426;iat_vr;59.98458396281291;
3;BLUME;Natur;q;0;2;2;12;q;1;4.531751400001667;001;ASHK62;2019_Nov_28_1426;iat_vr;59.98458396281291;
3;NEGATIV;negativ;q;0;3;3;2;q;1;1.1475542000007408;001;ASHK62;2019_Nov_28_1426;iat_vr;59.98458396281291;
3;GEBÄUDE;Gemacht;p;0;4;4;15;p;1;3.0682154999994964;001;ASHK62;2019_Nov_28_1426;iat_vr;59.98458396281291;
3;SCHWACH;negativ;q;0;5;5;4;q;1;1.327962999999727;001;ASHK62;2019_Nov_28_1426;iat_vr;59.98458396281291;
3;SCHLIMM;negativ;q;0;6;6;0;q;1;0.7968870000004245;001;ASHK62;2019_Nov_28_1426;iat_vr;59.98458396281291;
3;LAMPE;Gemacht;p;0;7;7;19;p;1;1.0989625999973214;001;ASHK62;2019_Nov_28_1426;iat_vr;59.98458396281291;
3;EINWANDFREI;positiv;p;0;8;8;6;p;1;1.3778519999978016;001;ASHK62;2019_Nov_28_1426;iat_vr;59.98458396281291;
3;COMPUTER;Gemacht;p;0;9;9;18;p;1;2.6660673000005772;001;ASHK62;2019_Nov_28_1426;iat_vr;59.98458396281291;
3;STADT;Gemacht;p;0;10;10;16;p;1;0.8978473999995913;001;ASHK62;2019_Nov_28_1426;iat_vr;59.98458396281291;
3;STEIN;Natur;q;0;11;11;14;q;1;1.2316194000013638;001;ASHK62;2019_Nov_28_1426;iat_vr;59.98458396281291;
3;POSITIV;positiv;p;0;12;12;8;p;1;2.546171800000593;001;ASHK62;2019_Nov_28_1426;iat_vr;59.98458396281291;
3;AUSGEZEICHNET;positiv;p;0;13;13;5;p;1;1.1065708000023733;001;ASHK62;2019_Nov_28_1426;iat_vr;59.98458396281291;
3;GUT;positiv;p;0;14;14;9;p;1;0.6993264999982785;001;ASHK62;2019_Nov_28_1426;iat_vr;59.98458396281291;
3;HERVORRAGEND;positiv;p;0;15;15;7;p;1;0.7736508000016329;001;ASHK62;2019_Nov_28_1426;iat_vr;59.98458396281291;
3;TIER;Natur;q;0;16;16;13;q;1;1.6321533999980602;001;ASHK62;2019_Nov_28_1426;iat_vr;59.98458396281291;
3;BAUM;Natur;q;0;17;17;10;q;1;1.0490056999988155;001;ASHK62;2019_Nov_28_1426;iat_vr;59.98458396281291;
3;SCHÄDLICH;negativ;q;0;18;18;3;q;1;0.9803618000005372;001;ASHK62;2019_Nov_28_1426;iat_vr;59.98458396281291;
3;WASSER;Natur;q;0;19;19;11;q;1;2.628201399998943;001;ASHK62;2019_Nov_28_1426;iat_vr;59.98458396281291;
;;;;;;;;;;;001;ASHK62;2019_Nov_28_1426;iat_vr;59.98458396281291;
4;BAUM;Natur;q;0;0;0;10;q;1;5.946393700000044;001;ASHK62;2019_Nov_28_1426;iat_vr;59.98458396281291;
4;POSITIV;positiv;p;0;1;1;8;p;1;1.4648081999985152;001;ASHK62;2019_Nov_28_1426;iat_vr;59.98458396281291;
4;STADT;Gemacht;p;0;2;2;16;p;1;1.3640556999998807;001;ASHK62;2019_Nov_28_1426;iat_vr;59.98458396281291;
4;KLEIDER;Gemacht;p;0;3;3;17;p;1;0.8480759999984002;001;ASHK62;2019_Nov_28_1426;iat_vr;59.98458396281291;
4;GUT;positiv;p;0;4;4;9;p;1;1.5158993999975792;001;ASHK62;2019_Nov_28_1426;iat_vr;59.98458396281291;
4;EINWANDFREI;positiv;p;0;5;5;6;p;1;0.8279982000021846;001;ASHK62;2019_Nov_28_1426;iat_vr;59.98458396281291;
4;TIER;Natur;q;0;6;6;13;q;1;1.3800392000011925;001;ASHK62;2019_Nov_28_1426;iat_vr;59.98458396281291;
4;COMPUTER;Gemacht;p;0;7;7;18;p;1;0.8322403000020131;001;ASHK62;2019_Nov_28_1426;iat_vr;59.98458396281291;
4;BLUME;Natur;q;0;8;8;12;q;1;2.183234899999661;001;ASHK62;2019_Nov_28_1426;iat_vr;59.98458396281291;
4;SCHÄDLICH;negativ;q;0;9;9;3;q;1;1.0456846999986738;001;ASHK62;2019_Nov_28_1426;iat_vr;59.98458396281291;
4;WASSER;Natur;q;0;10;10;11;q;1;1.4313672999996925;001;ASHK62;2019_Nov_28_1426;iat_vr;59.98458396281291;
4;AUSGEZEICHNET;positiv;p;0;11;11;5;p;1;1.510343499998271;001;ASHK62;2019_Nov_28_1426;iat_vr;59.98458396281291;
4;SCHLECHT;negativ;q;0;12;12;1;q;1;0.9478476000003866;001;ASHK62;2019_Nov_28_1426;iat_vr;59.98458396281291;
4;SCHWACH;negativ;q;0;13;13;4;q;1;0.912650999998732;001;ASHK62;2019_Nov_28_1426;iat_vr;59.98458396281291;
4;GEBÄUDE;Gemacht;p;0;14;14;15;p;1;0.8807073999996646;001;ASHK62;2019_Nov_28_1426;iat_vr;59.98458396281291;
4;LAMPE;Gemacht;p;0;15;15;19;p;1;1.6490419000001566;001;ASHK62;2019_Nov_28_1426;iat_vr;59.98458396281291;
4;STEIN;Natur;q;0;16;16;14;q;1;1.0639617000015278;001;ASHK62;2019_Nov_28_1426;iat_vr;59.98458396281291;
4;NEGATIV;negativ;q;0;17;17;2;q;1;1.1191037000025972;001;ASHK62;2019_Nov_28_1426;iat_vr;59.98458396281291;
4;SCHLIMM;negativ;q;0;18;18;0;q;1;0.6815212000001338;001;ASHK62;2019_Nov_28_1426;iat_vr;59.98458396281291;
4;HERVORRAGEND;positiv;p;0;19;19;7;p;1;0.9348831999996037;001;ASHK62;2019_Nov_28_1426;iat_vr;59.98458396281291;
4;LAMPE;Gemacht;p;1;0;20;19;p;1;0.9192655000006198;001;ASHK62;2019_Nov_28_1426;iat_vr;59.98458396281291;
4;POSITIV;positiv;p;1;1;21;8;p;1;1.3353753999981564;001;ASHK62;2019_Nov_28_1426;iat_vr;59.98458396281291;
4;BLUME;Natur;q;1;2;22;12;q;1;1.33145660000082;001;ASHK62;2019_Nov_28_1426;iat_vr;59.98458396281291;
4;SCHWACH;negativ;q;1;3;23;4;q;1;1.046211700002459;001;ASHK62;2019_Nov_28_1426;iat_vr;59.98458396281291;
4;NEGATIV;negativ;q;1;4;24;2;q;1;0.6823923000010836;001;ASHK62;2019_Nov_28_1426;iat_vr;59.98458396281291;
4;BAUM;Natur;q;1;5;25;10;q;1;0.9648632999997062;001;ASHK62;2019_Nov_28_1426;iat_vr;59.98458396281291;
4;HERVORRAGEND;positiv;p;1;6;26;7;p;1;0.8937311000008776;001;ASHK62;2019_Nov_28_1426;iat_vr;59.98458396281291;
4;AUSGEZEICHNET;positiv;p;1;7;27;5;p;1;0.7792837000015425;001;ASHK62;2019_Nov_28_1426;iat_vr;59.98458396281291;
4;GUT;positiv;p;1;8;28;9;p;1;0.7325366000004578;001;ASHK62;2019_Nov_28_1426;iat_vr;59.98458396281291;
4;SCHLECHT;negativ;q;1;9;29;1;q;1;0.8437591000001703;001;ASHK62;2019_Nov_28_1426;iat_vr;59.98458396281291;
4;TIER;Natur;q;1;10;30;13;q;1;1.8485010000003967;001;ASHK62;2019_Nov_28_1426;iat_vr;59.98458396281291;
4;EINWANDFREI;positiv;p;1;11;31;6;p;1;0.9529375000020082;001;ASHK62;2019_Nov_28_1426;iat_vr;59.98458396281291;
4;KLEIDER;Gemacht;p;1;12;32;17;p;1;0.8682413000024098;001;ASHK62;2019_Nov_28_1426;iat_vr;59.98458396281291;
4;WASSER;Natur;q;1;13;33;11;q;1;1.0668919000017922;001;ASHK62;2019_Nov_28_1426;iat_vr;59.98458396281291;
4;STEIN;Natur;q;1;14;34;14;q;1;1.9799789999997301;001;ASHK62;2019_Nov_28_1426;iat_vr;59.98458396281291;
4;STADT;Gemacht;p;1;15;35;16;p;1;0.7983844999980647;001;ASHK62;2019_Nov_28_1426;iat_vr;59.98458396281291;
4;GEBÄUDE;Gemacht;p;1;16;36;15;p;1;0.6858683999998902;001;ASHK62;2019_Nov_28_1426;iat_vr;59.98458396281291;
4;SCHLIMM;negativ;q;1;17;37;0;q;1;0.796984299999167;001;ASHK62;2019_Nov_28_1426;iat_vr;59.98458396281291;
4;SCHÄDLICH;negativ;q;1;18;38;3;q;1;0.6633999999976368;001;ASHK62;2019_Nov_28_1426;iat_vr;59.98458396281291;
4;COMPUTER;Gemacht;p;1;19;39;18;p;1;1.0316105000019888;001;ASHK62;2019_Nov_28_1426;iat_vr;59.98458396281291;
;;;;;;;;;;;001;ASHK62;2019_Nov_28_1426;iat_vr;59.98458396281291;
5;BAUM;Natur;p;0;0;0;0;p;1;4.530207199997676;001;ASHK62;2019_Nov_28_1426;iat_vr;59.98458396281291;
5;STEIN;Natur;p;0;1;1;4;p;1;4.060756199996831;001;ASHK62;2019_Nov_28_1426;iat_vr;59.98458396281291;
5;WASSER;Natur;p;0;2;2;1;p;1;1.9490617000010388;001;ASHK62;2019_Nov_28_1426;iat_vr;59.98458396281291;
5;GEBÄUDE;Gemacht;q;0;3;3;5;q;1;1.1356612000017776;001;ASHK62;2019_Nov_28_1426;iat_vr;59.98458396281291;
5;STADT;Gemacht;q;0;4;4;6;q;1;0.7823706999988644;001;ASHK62;2019_Nov_28_1426;iat_vr;59.98458396281291;
5;TIER;Natur;p;0;5;5;3;p;1;1.0149984000017866;001;ASHK62;2019_Nov_28_1426;iat_vr;59.98458396281291;
5;LAMPE;Gemacht;q;0;6;6;9;q;1;5.146167899998545;001;ASHK62;2019_Nov_28_1426;iat_vr;59.98458396281291;
5;KLEIDER;Gemacht;q;0;7;7;7;q;1;0.8305450000007113;001;ASHK62;2019_Nov_28_1426;iat_vr;59.98458396281291;
5;COMPUTER;Gemacht;q;0;8;8;8;q;1;0.7787865000027523;001;ASHK62;2019_Nov_28_1426;iat_vr;59.98458396281291;
5;BLUME;Natur;p;0;9;9;2;p;1;1.0996761999995215;001;ASHK62;2019_Nov_28_1426;iat_vr;59.98458396281291;
5;KLEIDER;Gemacht;q;1;0;10;7;q;1;1.4148137000011047;001;ASHK62;2019_Nov_28_1426;iat_vr;59.98458396281291;
5;LAMPE;Gemacht;q;1;1;11;9;q;1;1.563856199998554;001;ASHK62;2019_Nov_28_1426;iat_vr;59.98458396281291;
5;BLUME;Natur;p;1;2;12;2;p;1;1.0472812000007252;001;ASHK62;2019_Nov_28_1426;iat_vr;59.98458396281291;
5;TIER;Natur;p;1;3;13;3;p;1;1.197967799998878;001;ASHK62;2019_Nov_28_1426;iat_vr;59.98458396281291;
5;COMPUTER;Gemacht;q;1;4;14;8;q;1;1.102932999998302;001;ASHK62;2019_Nov_28_1426;iat_vr;59.98458396281291;
5;GEBÄUDE;Gemacht;q;1;5;15;5;q;1;0.6807093999996141;001;ASHK62;2019_Nov_28_1426;iat_vr;59.98458396281291;
5;STADT;Gemacht;q;1;6;16;6;q;1;0.6984553000002052;001;ASHK62;2019_Nov_28_1426;iat_vr;59.98458396281291;
5;STEIN;Natur;p;1;7;17;4;p;1;1.148654999997234;001;ASHK62;2019_Nov_28_1426;iat_vr;59.98458396281291;
5;WASSER;Natur;p;1;8;18;1;p;1;1.081581999998889;001;ASHK62;2019_Nov_28_1426;iat_vr;59.98458396281291;
5;BAUM;Natur;p;1;9;19;0;p;1;3.1140369000022474;001;ASHK62;2019_Nov_28_1426;iat_vr;59.98458396281291;
;;;;;;;;;;;001;ASHK62;2019_Nov_28_1426;iat_vr;59.98458396281291;
6;NEGATIV;negativ;q;0;0;0;12;q;1;2.4836104000023624;001;ASHK62;2019_Nov_28_1426;iat_vr;59.98458396281291;
6;LAMPE;Gemacht;q;0;1;1;9;q;1;1.4151005000021541;001;ASHK62;2019_Nov_28_1426;iat_vr;59.98458396281291;
6;AUSGEZEICHNET;positiv;p;0;2;2;15;p;1;1.378849299999274;001;ASHK62;2019_Nov_28_1426;iat_vr;59.98458396281291;
6;STADT;Gemacht;q;0;3;3;6;q;1;1.0815801999997348;001;ASHK62;2019_Nov_28_1426;iat_vr;59.98458396281291;
6;SCHLECHT;negativ;q;0;4;4;11;q;1;2.1614302000016323;001;ASHK62;2019_Nov_28_1426;iat_vr;59.98458396281291;
6;SCHÄDLICH;negativ;q;0;5;5;13;q;1;1.0468370000016876;001;ASHK62;2019_Nov_28_1426;iat_vr;59.98458396281291;
6;SCHLIMM;negativ;q;0;6;6;10;q;1;0.7812149999990652;001;ASHK62;2019_Nov_28_1426;iat_vr;59.98458396281291;
6;STEIN;Natur;p;0;7;7;4;p;1;1.5816130000021076;001;ASHK62;2019_Nov_28_1426;iat_vr;59.98458396281291;
6;BLUME;Natur;p;0;8;8;2;p;1;0.8987899000021571;001;ASHK62;2019_Nov_28_1426;iat_vr;59.98458396281291;
6;EINWANDFREI;positiv;p;0;9;9;16;p;1;0.8419485000013083;001;ASHK62;2019_Nov_28_1426;iat_vr;59.98458396281291;
6;POSITIV;positiv;p;0;10;10;18;p;1;0.9110854999998992;001;ASHK62;2019_Nov_28_1426;iat_vr;59.98458396281291;
6;COMPUTER;Gemacht;q;0;11;11;8;q;1;1.0132773000004818;001;ASHK62;2019_Nov_28_1426;iat_vr;59.98458396281291;
6;GUT;positiv;p;0;12;12;19;p;1;0.9491648000002897;001;ASHK62;2019_Nov_28_1426;iat_vr;59.98458396281291;
6;HERVORRAGEND;positiv;p;0;13;13;17;p;1;0.762083800000255;001;ASHK62;2019_Nov_28_1426;iat_vr;59.98458396281291;
6;BAUM;Natur;p;0;14;14;0;p;1;2.998783099999855;001;ASHK62;2019_Nov_28_1426;iat_vr;59.98458396281291;
6;WASSER;Natur;p;0;15;15;1;p;1;0.7177870999985316;001;ASHK62;2019_Nov_28_1426;iat_vr;59.98458396281291;
6;TIER;Natur;p;0;16;16;3;p;1;0.7815300000002026;001;ASHK62;2019_Nov_28_1426;iat_vr;59.98458396281291;
6;KLEIDER;Gemacht;q;0;17;17;7;q;1;0.9971063999983016;001;ASHK62;2019_Nov_28_1426;iat_vr;59.98458396281291;
6;SCHWACH;negativ;q;0;18;18;14;q;1;1.9852370000007795;001;ASHK62;2019_Nov_28_1426;iat_vr;59.98458396281291;
6;GEBÄUDE;Gemacht;q;0;19;19;5;q;1;1.3310577000011108;001;ASHK62;2019_Nov_28_1426;iat_vr;59.98458396281291;
;;;;;;;;;;;001;ASHK62;2019_Nov_28_1426;iat_vr;59.98458396281291;
7;BAUM;Natur;p;0;0;0;0;p;1;5.4256671000002825;001;ASHK62;2019_Nov_28_1426;iat_vr;59.98458396281291;
7;HERVORRAGEND;positiv;p;0;1;1;17;p;1;0.9109629999984463;001;ASHK62;2019_Nov_28_1426;iat_vr;59.98458396281291;
7;KLEIDER;Gemacht;q;0;2;2;7;q;1;1.080513199998677;001;ASHK62;2019_Nov_28_1426;iat_vr;59.98458396281291;
7;POSITIV;positiv;p;0;3;3;18;p;1;1.3791687000011734;001;ASHK62;2019_Nov_28_1426;iat_vr;59.98458396281291;
7;LAMPE;Gemacht;q;0;4;4;9;q;1;1.7639363000016601;001;ASHK62;2019_Nov_28_1426;iat_vr;59.98458396281291;
7;COMPUTER;Gemacht;q;0;5;5;8;q;1;1.097935800000414;001;ASHK62;2019_Nov_28_1426;iat_vr;59.98458396281291;
7;STADT;Gemacht;q;0;6;6;6;q;1;0.880829800000356;001;ASHK62;2019_Nov_28_1426;iat_vr;59.98458396281291;
7;GUT;positiv;p;0;7;7;19;p;1;0.8984096000021964;001;ASHK62;2019_Nov_28_1426;iat_vr;59.98458396281291;
7;TIER;Natur;p;0;8;8;3;p;1;2.6155605999992986;001;ASHK62;2019_Nov_28_1426;iat_vr;59.98458396281291;
7;NEGATIV;negativ;q;0;9;9;12;q;1;1.5017197000015585;001;ASHK62;2019_Nov_28_1426;iat_vr;59.98458396281291;
7;STEIN;Natur;p;0;10;10;4;p;1;1.0821935999993002;001;ASHK62;2019_Nov_28_1426;iat_vr;59.98458396281291;
7;SCHÄDLICH;negativ;q;0;11;11;13;q;1;0.9972134000017832;001;ASHK62;2019_Nov_28_1426;iat_vr;59.98458396281291;
7;SCHWACH;negativ;q;0;12;12;14;q;1;1.1318246000009822;001;ASHK62;2019_Nov_28_1426;iat_vr;59.98458396281291;
7;WASSER;Natur;p;0;13;13;1;p;1;1.280455100000836;001;ASHK62;2019_Nov_28_1426;iat_vr;59.98458396281291;
7;SCHLECHT;negativ;q;0;14;14;11;q;1;1.3507351000007475;001;ASHK62;2019_Nov_28_1426;iat_vr;59.98458396281291;
7;BLUME;Natur;p;0;15;15;2;p;1;1.1820369999986724;001;ASHK62;2019_Nov_28_1426;iat_vr;59.98458396281291;
7;GEBÄUDE;Gemacht;q;0;16;16;5;q;1;1.7111351999992621;001;ASHK62;2019_Nov_28_1426;iat_vr;59.98458396281291;
7;AUSGEZEICHNET;positiv;p;0;17;17;15;p;1;0.8442549000028521;001;ASHK62;2019_Nov_28_1426;iat_vr;59.98458396281291;
7;SCHLIMM;negativ;q;0;18;18;10;q;1;0.981132400000206;001;ASHK62;2019_Nov_28_1426;iat_vr;59.98458396281291;
7;EINWANDFREI;positiv;p;0;19;19;16;p;1;0.8794496999980765;001;ASHK62;2019_Nov_28_1426;iat_vr;59.98458396281291;
7;GEBÄUDE;Gemacht;q;1;0;20;5;q;1;1.8150808999998844;001;ASHK62;2019_Nov_28_1426;iat_vr;59.98458396281291;
7;COMPUTER;Gemacht;q;1;1;21;8;q;1;0.8133908999989217;001;ASHK62;2019_Nov_28_1426;iat_vr;59.98458396281291;
7;NEGATIV;negativ;q;1;2;22;12;q;1;0.9313728999986779;001;ASHK62;2019_Nov_28_1426;iat_vr;59.98458396281291;
7;GUT;positiv;p;1;3;23;19;p;1;0.8138779000000795;001;ASHK62;2019_Nov_28_1426;iat_vr;59.98458396281291;
7;AUSGEZEICHNET;positiv;p;1;4;24;15;p;1;0.6918031999994128;001;ASHK62;2019_Nov_28_1426;iat_vr;59.98458396281291;
7;SCHWACH;negativ;q;1;5;25;14;q;1;0.9021002999979828;001;ASHK62;2019_Nov_28_1426;iat_vr;59.98458396281291;
7;STADT;Gemacht;q;1;6;26;6;q;1;2.181255700001202;001;ASHK62;2019_Nov_28_1426;iat_vr;59.98458396281291;
7;WASSER;Natur;p;1;7;27;1;p;1;0.8666010999986611;001;ASHK62;2019_Nov_28_1426;iat_vr;59.98458396281291;
7;BAUM;Natur;p;1;8;28;0;p;1;0.8756446999977925;001;ASHK62;2019_Nov_28_1426;iat_vr;59.98458396281291;
7;LAMPE;Gemacht;q;1;9;29;9;q;1;0.996233800000482;001;ASHK62;2019_Nov_28_1426;iat_vr;59.98458396281291;
7;EINWANDFREI;positiv;p;1;10;30;16;p;1;0.9484689999990223;001;ASHK62;2019_Nov_28_1426;iat_vr;59.98458396281291;
7;POSITIV;positiv;p;1;11;31;18;p;1;0.936008500000753;001;ASHK62;2019_Nov_28_1426;iat_vr;59.98458396281291;
7;SCHLECHT;negativ;q;1;12;32;11;q;1;0.8357961000001524;001;ASHK62;2019_Nov_28_1426;iat_vr;59.98458396281291;
7;BLUME;Natur;p;1;13;33;2;p;1;0.7752077999975882;001;ASHK62;2019_Nov_28_1426;iat_vr;59.98458396281291;
7;TIER;Natur;p;1;14;34;3;p;1;1.0145041999967361;001;ASHK62;2019_Nov_28_1426;iat_vr;59.98458396281291;
7;SCHLIMM;negativ;q;1;15;35;10;q;1;0.9314535999983491;001;ASHK62;2019_Nov_28_1426;iat_vr;59.98458396281291;
7;KLEIDER;Gemacht;q;1;16;36;7;q;1;1.2477290000024368;001;ASHK62;2019_Nov_28_1426;iat_vr;59.98458396281291;
7;HERVORRAGEND;positiv;p;1;17;37;17;p;1;0.8933376999993925;001;ASHK62;2019_Nov_28_1426;iat_vr;59.98458396281291;
7;STEIN;Natur;p;1;18;38;4;p;1;1.0812011000016355;001;ASHK62;2019_Nov_28_1426;iat_vr;59.98458396281291;
7;SCHÄDLICH;negativ;q;1;19;39;13;q;1;0.9304922000010265;001;ASHK62;2019_Nov_28_1426;iat_vr;59.98458396281291;
;;;;;;;;;;;001;ASHK62;2019_Nov_28_1426;iat_vr;59.98458396281291;
