Block;Word;Category;CorrResp;trials.thisRepN;trials.thisTrialN;trials.thisN;trials.thisIndex;key_resp_2.keys;key_resp_2.corr;key_resp_2.rt;session;participant;date;expName;frameRate;
1;BAUM;Natur;q;0;0;0;0;q;1;1.7437858000048436;001;ASJK92;2019_Nov_29_1453;iat_vr;60.01824554583567;
1;STEIN;Natur;q;0;1;1;4;q;1;0.8501561000011861;001;ASJK92;2019_Nov_29_1453;iat_vr;60.01824554583567;
1;GEBÄUDE;Gemacht;p;0;2;2;5;p;1;1.166831499998807;001;ASJK92;2019_Nov_29_1453;iat_vr;60.01824554583567;
1;TIER;Natur;q;0;3;3;3;q;1;0.8170205000060378;001;ASJK92;2019_Nov_29_1453;iat_vr;60.01824554583567;
1;LAMPE;Gemacht;p;0;4;4;9;p;1;0.9666967999946792;001;ASJK92;2019_Nov_29_1453;iat_vr;60.01824554583567;
1;KLEIDER;Gemacht;p;0;5;5;7;p;1;1.8167947999900207;001;ASJK92;2019_Nov_29_1453;iat_vr;60.01824554583567;
1;STADT;Gemacht;p;0;6;6;6;p;1;1.3169810000108555;001;ASJK92;2019_Nov_29_1453;iat_vr;60.01824554583567;
1;WASSER;Natur;q;0;7;7;1;q;1;0.8502279999956954;001;ASJK92;2019_Nov_29_1453;iat_vr;60.01824554583567;
1;COMPUTER;Gemacht;p;0;8;8;8;p;1;1.800062499998603;001;ASJK92;2019_Nov_29_1453;iat_vr;60.01824554583567;
1;BLUME;Natur;q;0;9;9;2;q;1;0.5336952999932691;001;ASJK92;2019_Nov_29_1453;iat_vr;60.01824554583567;
1;COMPUTER;Gemacht;p;1;0;10;8;p;1;0.8169035999890184;001;ASJK92;2019_Nov_29_1453;iat_vr;60.01824554583567;
1;BLUME;Natur;q;1;1;11;2;q;1;0.7669266000011703;001;ASJK92;2019_Nov_29_1453;iat_vr;60.01824554583567;
1;WASSER;Natur;q;1;2;12;1;q;1;1.0002452000044286;001;ASJK92;2019_Nov_29_1453;iat_vr;60.01824554583567;
1;BAUM;Natur;q;1;3;13;0;q;1;1.3003008999949088;001;ASJK92;2019_Nov_29_1453;iat_vr;60.01824554583567;
1;STEIN;Natur;q;1;4;14;4;q;1;0.650250100006815;001;ASJK92;2019_Nov_29_1453;iat_vr;60.01824554583567;
1;GEBÄUDE;Gemacht;p;1;5;15;5;p;1;0.7669244999997318;001;ASJK92;2019_Nov_29_1453;iat_vr;60.01824554583567;
1;STADT;Gemacht;p;1;6;16;6;p;1;0.8336471999937203;001;ASJK92;2019_Nov_29_1453;iat_vr;60.01824554583567;
1;LAMPE;Gemacht;p;1;7;17;9;p;1;0.8335181000002194;001;ASJK92;2019_Nov_29_1453;iat_vr;60.01824554583567;
1;KLEIDER;Gemacht;p;1;8;18;7;p;1;1.0524017999996431;001;ASJK92;2019_Nov_29_1453;iat_vr;60.01824554583567;
1;TIER;Natur;q;1;9;19;3;q;1;0.9489993000024697;001;ASJK92;2019_Nov_29_1453;iat_vr;60.01824554583567;
;;;;;;;;;;;001;ASJK92;2019_Nov_29_1453;iat_vr;60.01824554583567;
2;SCHWACH;negativ;q;0;0;0;4;q;1;5.81904270000814;001;ASJK92;2019_Nov_29_1453;iat_vr;60.01824554583567;
2;SCHÄDLICH;negativ;q;0;1;1;3;q;1;1.1080072000040673;001;ASJK92;2019_Nov_29_1453;iat_vr;60.01824554583567;
2;HERVORRAGEND;positiv;p;0;2;2;7;p;1;1.121611299997312;001;ASJK92;2019_Nov_29_1453;iat_vr;60.01824554583567;
2;SCHLECHT;negativ;q;0;3;3;1;q;1;0.897655599997961;001;ASJK92;2019_Nov_29_1453;iat_vr;60.01824554583567;
2;EINWANDFREI;positiv;p;0;4;4;6;p;1;2.741783499994199;001;ASJK92;2019_Nov_29_1453;iat_vr;60.01824554583567;
2;AUSGEZEICHNET;positiv;p;0;5;5;5;p;1;1.7515924000035739;001;ASJK92;2019_Nov_29_1453;iat_vr;60.01824554583567;
2;GUT;positiv;p;0;6;6;9;p;1;0.6983944999956293;001;ASJK92;2019_Nov_29_1453;iat_vr;60.01824554583567;
2;POSITIV;positiv;p;0;7;7;8;p;1;0.6627960000041639;001;ASJK92;2019_Nov_29_1453;iat_vr;60.01824554583567;
2;NEGATIV;negativ;q;0;8;8;2;q;1;0.7954457000014372;001;ASJK92;2019_Nov_29_1453;iat_vr;60.01824554583567;
2;SCHLIMM;negativ;q;0;9;9;0;q;1;0.9311827000055928;001;ASJK92;2019_Nov_29_1453;iat_vr;60.01824554583567;
2;SCHLIMM;negativ;q;1;0;10;0;q;1;1.7508589000062784;001;ASJK92;2019_Nov_29_1453;iat_vr;60.01824554583567;
2;POSITIV;positiv;p;1;1;11;8;p;1;1.0639477000077022;001;ASJK92;2019_Nov_29_1453;iat_vr;60.01824554583567;
2;SCHÄDLICH;negativ;q;1;2;12;3;q;1;1.1314901000005193;001;ASJK92;2019_Nov_29_1453;iat_vr;60.01824554583567;
2;HERVORRAGEND;positiv;p;1;3;13;7;p;1;0.8791060999938054;001;ASJK92;2019_Nov_29_1453;iat_vr;60.01824554583567;
2;EINWANDFREI;positiv;p;1;4;14;6;p;1;1.4258384999993723;001;ASJK92;2019_Nov_29_1453;iat_vr;60.01824554583567;
2;AUSGEZEICHNET;positiv;p;1;5;15;5;p;1;0.6942835999943782;001;ASJK92;2019_Nov_29_1453;iat_vr;60.01824554583567;
2;SCHWACH;negativ;q;1;6;16;4;q;1;0.8646785999881104;001;ASJK92;2019_Nov_29_1453;iat_vr;60.01824554583567;
2;SCHLECHT;negativ;q;1;7;17;1;q;1;1.4141165999899385;001;ASJK92;2019_Nov_29_1453;iat_vr;60.01824554583567;
2;NEGATIV;negativ;q;1;8;18;2;q;1;0.6481072000024142;001;ASJK92;2019_Nov_29_1453;iat_vr;60.01824554583567;
2;GUT;positiv;p;1;9;19;9;p;1;0.6828724000079092;001;ASJK92;2019_Nov_29_1453;iat_vr;60.01824554583567;
;;;;;;;;;;;001;ASJK92;2019_Nov_29_1453;iat_vr;60.01824554583567;
3;STADT;Gemacht;p;0;0;0;16;p;1;6.083421300005284;001;ASJK92;2019_Nov_29_1453;iat_vr;60.01824554583567;
3;BAUM;Natur;q;0;1;1;10;q;1;0.7995292999985395;001;ASJK92;2019_Nov_29_1453;iat_vr;60.01824554583567;
3;LAMPE;Gemacht;p;0;2;2;19;p;1;1.719102799994289;001;ASJK92;2019_Nov_29_1453;iat_vr;60.01824554583567;
3;AUSGEZEICHNET;positiv;p;0;3;3;5;p;1;0.9790284999908181;001;ASJK92;2019_Nov_29_1453;iat_vr;60.01824554583567;
3;GUT;positiv;p;0;4;4;9;p;1;1.7660328000056325;001;ASJK92;2019_Nov_29_1453;iat_vr;60.01824554583567;
3;HERVORRAGEND;positiv;p;0;5;5;7;p;1;0.7779064000060316;001;ASJK92;2019_Nov_29_1453;iat_vr;60.01824554583567;
3;EINWANDFREI;positiv;p;0;6;6;6;p;1;0.8949581999913789;001;ASJK92;2019_Nov_29_1453;iat_vr;60.01824554583567;
3;SCHWACH;negativ;q;0;7;7;4;q;1;1.4150968999892939;001;ASJK92;2019_Nov_29_1453;iat_vr;60.01824554583567;
3;NEGATIV;negativ;q;0;8;8;2;q;1;0.6491644000052474;001;ASJK92;2019_Nov_29_1453;iat_vr;60.01824554583567;
3;SCHÄDLICH;negativ;q;0;9;9;3;q;1;0.6640997999929823;001;ASJK92;2019_Nov_29_1453;iat_vr;60.01824554583567;
3;POSITIV;positiv;p;0;10;10;8;p;1;0.7303950000059558;001;ASJK92;2019_Nov_29_1453;iat_vr;60.01824554583567;
3;SCHLECHT;negativ;q;0;11;11;1;q;1;0.7630542999977479;001;ASJK92;2019_Nov_29_1453;iat_vr;60.01824554583567;
3;KLEIDER;Gemacht;p;0;12;12;17;p;1;1.0639087000017753;001;ASJK92;2019_Nov_29_1453;iat_vr;60.01824554583567;
3;BLUME;Natur;q;0;13;13;12;q;1;0.7651098000060301;001;ASJK92;2019_Nov_29_1453;iat_vr;60.01824554583567;
3;SCHLIMM;negativ;q;0;14;14;0;q;1;3.979682100005448;001;ASJK92;2019_Nov_29_1453;iat_vr;60.01824554583567;
3;STEIN;Natur;q;0;15;15;14;q;1;1.0964760000060778;001;ASJK92;2019_Nov_29_1453;iat_vr;60.01824554583567;
3;WASSER;Natur;q;0;16;16;11;q;1;0.9857741000014357;001;ASJK92;2019_Nov_29_1453;iat_vr;60.01824554583567;
3;COMPUTER;Gemacht;p;0;17;17;18;p;1;2.932193600005121;001;ASJK92;2019_Nov_29_1453;iat_vr;60.01824554583567;
3;TIER;Natur;q;0;18;18;13;q;1;1.24769400000514;001;ASJK92;2019_Nov_29_1453;iat_vr;60.01824554583567;
3;GEBÄUDE;Gemacht;p;0;19;19;15;p;1;0.714663799997652;001;ASJK92;2019_Nov_29_1453;iat_vr;60.01824554583567;
;;;;;;;;;;;001;ASJK92;2019_Nov_29_1453;iat_vr;60.01824554583567;
4;WASSER;Natur;q;0;0;0;11;q;1;2.573546899991925;001;ASJK92;2019_Nov_29_1453;iat_vr;60.01824554583567;
4;LAMPE;Gemacht;p;0;1;1;19;p;1;1.8146790000027977;001;ASJK92;2019_Nov_29_1453;iat_vr;60.01824554583567;
4;SCHLECHT;negativ;q;0;2;2;1;q;1;2.4137014000007184;001;ASJK92;2019_Nov_29_1453;iat_vr;60.01824554583567;
4;SCHWACH;negativ;q;0;3;3;4;q;1;0.762216700008139;001;ASJK92;2019_Nov_29_1453;iat_vr;60.01824554583567;
4;POSITIV;positiv;p;0;4;4;8;p;1;0.7128620000003139;001;ASJK92;2019_Nov_29_1453;iat_vr;60.01824554583567;
4;TIER;Natur;q;0;5;5;13;q;1;0.8317497000098228;001;ASJK92;2019_Nov_29_1453;iat_vr;60.01824554583567;
4;BAUM;Natur;q;0;6;6;10;q;1;0.6464410000044154;001;ASJK92;2019_Nov_29_1453;iat_vr;60.01824554583567;
4;GEBÄUDE;Gemacht;p;0;7;7;15;p;1;0.9147643000032986;001;ASJK92;2019_Nov_29_1453;iat_vr;60.01824554583567;
4;GUT;positiv;p;0;8;8;9;p;1;1.8325755999976536;001;ASJK92;2019_Nov_29_1453;iat_vr;60.01824554583567;
4;AUSGEZEICHNET;positiv;p;0;9;9;5;p;1;0.8071289999934379;001;ASJK92;2019_Nov_29_1453;iat_vr;60.01824554583567;
4;STADT;Gemacht;p;0;10;10;16;p;1;1.0652249999984633;001;ASJK92;2019_Nov_29_1453;iat_vr;60.01824554583567;
4;SCHLIMM;negativ;q;0;11;11;0;q;1;2.4686497999937274;001;ASJK92;2019_Nov_29_1453;iat_vr;60.01824554583567;
4;COMPUTER;Gemacht;p;0;12;12;18;p;1;0.781335499996203;001;ASJK92;2019_Nov_29_1453;iat_vr;60.01824554583567;
4;SCHÄDLICH;negativ;q;0;13;13;3;q;1;0.7295350000058534;001;ASJK92;2019_Nov_29_1453;iat_vr;60.01824554583567;
4;STEIN;Natur;q;0;14;14;14;q;1;1.6484177999955136;001;ASJK92;2019_Nov_29_1453;iat_vr;60.01824554583567;
4;NEGATIV;negativ;q;0;15;15;2;q;1;0.7795005000079982;001;ASJK92;2019_Nov_29_1453;iat_vr;60.01824554583567;
4;EINWANDFREI;positiv;p;0;16;16;6;p;1;2.1107670000055805;001;ASJK92;2019_Nov_29_1453;iat_vr;60.01824554583567;
4;KLEIDER;Gemacht;p;0;17;17;17;p;1;1.1128784000029555;001;ASJK92;2019_Nov_29_1453;iat_vr;60.01824554583567;
4;HERVORRAGEND;positiv;p;0;18;18;7;p;1;0.7596585999999661;001;ASJK92;2019_Nov_29_1453;iat_vr;60.01824554583567;
4;BLUME;Natur;q;0;19;19;12;q;1;0.8453156000032322;001;ASJK92;2019_Nov_29_1453;iat_vr;60.01824554583567;
4;SCHLECHT;negativ;q;1;0;20;1;q;1;0.5977752000035252;001;ASJK92;2019_Nov_29_1453;iat_vr;60.01824554583567;
4;STADT;Gemacht;p;1;1;21;16;p;1;0.8302627999946708;001;ASJK92;2019_Nov_29_1453;iat_vr;60.01824554583567;
4;SCHWACH;negativ;q;1;2;22;4;q;1;1.0461981999978889;001;ASJK92;2019_Nov_29_1453;iat_vr;60.01824554583567;
4;WASSER;Natur;q;1;3;23;11;q;1;0.9462417000031564;001;ASJK92;2019_Nov_29_1453;iat_vr;60.01824554583567;
4;HERVORRAGEND;positiv;p;1;4;24;7;p;1;1.0594967999932123;001;ASJK92;2019_Nov_29_1453;iat_vr;60.01824554583567;
4;NEGATIV;negativ;q;1;5;25;2;q;1;1.5442602999974042;001;ASJK92;2019_Nov_29_1453;iat_vr;60.01824554583567;
4;KLEIDER;Gemacht;p;1;6;26;17;p;1;0.9322769999998854;001;ASJK92;2019_Nov_29_1453;iat_vr;60.01824554583567;
4;BAUM;Natur;q;1;7;27;10;q;1;0.7654583000112325;001;ASJK92;2019_Nov_29_1453;iat_vr;60.01824554583567;
4;COMPUTER;Gemacht;p;1;8;28;18;p;1;0.785535200004233;001;ASJK92;2019_Nov_29_1453;iat_vr;60.01824554583567;
4;BLUME;Natur;q;1;9;29;12;q;1;1.19782609998947;001;ASJK92;2019_Nov_29_1453;iat_vr;60.01824554583567;
4;SCHÄDLICH;negativ;q;1;10;30;3;q;1;0.8955088000075193;001;ASJK92;2019_Nov_29_1453;iat_vr;60.01824554583567;
4;TIER;Natur;q;1;11;31;13;q;1;0.7491417000128422;001;ASJK92;2019_Nov_29_1453;iat_vr;60.01824554583567;
4;LAMPE;Gemacht;p;1;12;32;19;p;1;1.145610099993064;001;ASJK92;2019_Nov_29_1453;iat_vr;60.01824554583567;
4;GEBÄUDE;Gemacht;p;1;13;33;15;p;1;1.0308491000032518;001;ASJK92;2019_Nov_29_1453;iat_vr;60.01824554583567;
4;GUT;positiv;p;1;14;34;9;p;1;0.6823652000020957;001;ASJK92;2019_Nov_29_1453;iat_vr;60.01824554583567;
4;STEIN;Natur;q;1;15;35;14;q;1;0.8193398000003072;001;ASJK92;2019_Nov_29_1453;iat_vr;60.01824554583567;
4;POSITIV;positiv;p;1;16;36;8;p;1;1.3803006999951322;001;ASJK92;2019_Nov_29_1453;iat_vr;60.01824554583567;
4;EINWANDFREI;positiv;p;1;17;37;6;p;1;0.7601156999880914;001;ASJK92;2019_Nov_29_1453;iat_vr;60.01824554583567;
4;AUSGEZEICHNET;positiv;p;1;18;38;5;p;1;0.6775504000106594;001;ASJK92;2019_Nov_29_1453;iat_vr;60.01824554583567;
4;SCHLIMM;negativ;q;1;19;39;0;q;1;0.7858238999906462;001;ASJK92;2019_Nov_29_1453;iat_vr;60.01824554583567;
;;;;;;;;;;;001;ASJK92;2019_Nov_29_1453;iat_vr;60.01824554583567;
5;BLUME;Natur;p;0;0;0;2;p;1;1.0628576000017347;001;ASJK92;2019_Nov_29_1453;iat_vr;60.01824554583567;
5;WASSER;Natur;p;0;1;1;1;p;1;0.5815368999901693;001;ASJK92;2019_Nov_29_1453;iat_vr;60.01824554583567;
5;LAMPE;Gemacht;q;0;2;2;9;q;1;0.7484371999889845;001;ASJK92;2019_Nov_29_1453;iat_vr;60.01824554583567;
5;STEIN;Natur;p;0;3;3;4;p;1;0.7815208999963943;001;ASJK92;2019_Nov_29_1453;iat_vr;60.01824554583567;
5;COMPUTER;Gemacht;q;0;4;4;8;q;1;0.6961059000022942;001;ASJK92;2019_Nov_29_1453;iat_vr;60.01824554583567;
5;BAUM;Natur;p;0;5;5;0;p;1;0.6650480999960564;001;ASJK92;2019_Nov_29_1453;iat_vr;60.01824554583567;
5;GEBÄUDE;Gemacht;q;0;6;6;5;q;1;0.6967021000018576;001;ASJK92;2019_Nov_29_1453;iat_vr;60.01824554583567;
5;TIER;Natur;p;0;7;7;3;p;1;1.0486550000059651;001;ASJK92;2019_Nov_29_1453;iat_vr;60.01824554583567;
5;KLEIDER;Gemacht;q;0;8;8;7;q;1;0.7125586999900406;001;ASJK92;2019_Nov_29_1453;iat_vr;60.01824554583567;
5;STADT;Gemacht;q;0;9;9;6;q;1;1.1136012999922968;001;ASJK92;2019_Nov_29_1453;iat_vr;60.01824554583567;
5;LAMPE;Gemacht;q;1;0;10;9;q;1;0.5315092000091681;001;ASJK92;2019_Nov_29_1453;iat_vr;60.01824554583567;
5;KLEIDER;Gemacht;q;1;1;11;7;q;1;0.6481092999893008;001;ASJK92;2019_Nov_29_1453;iat_vr;60.01824554583567;
5;STADT;Gemacht;q;1;2;12;6;q;1;0.5802812999900198;001;ASJK92;2019_Nov_29_1453;iat_vr;60.01824554583567;
5;STEIN;Natur;p;1;3;13;4;p;1;0.7485168999992311;001;ASJK92;2019_Nov_29_1453;iat_vr;60.01824554583567;
5;TIER;Natur;p;1;4;14;3;p;1;0.7990838000114309;001;ASJK92;2019_Nov_29_1453;iat_vr;60.01824554583567;
5;WASSER;Natur;p;1;5;15;1;p;1;0.5317221000004793;001;ASJK92;2019_Nov_29_1453;iat_vr;60.01824554583567;
5;COMPUTER;Gemacht;q;1;6;16;8;q;1;0.6661326000030385;001;ASJK92;2019_Nov_29_1453;iat_vr;60.01824554583567;
5;BAUM;Natur;p;1;7;17;0;p;1;0.84883030000492;001;ASJK92;2019_Nov_29_1453;iat_vr;60.01824554583567;
5;GEBÄUDE;Gemacht;q;1;8;18;5;q;1;0.8479678999865428;001;ASJK92;2019_Nov_29_1453;iat_vr;60.01824554583567;
5;BLUME;Natur;p;1;9;19;2;p;1;0.8124747999972897;001;ASJK92;2019_Nov_29_1453;iat_vr;60.01824554583567;
;;;;;;;;;;;001;ASJK92;2019_Nov_29_1453;iat_vr;60.01824554583567;
6;BLUME;Natur;p;0;0;0;2;p;1;1.126269600004889;001;ASJK92;2019_Nov_29_1453;iat_vr;60.01824554583567;
6;TIER;Natur;p;0;1;1;3;p;1;2.16476070000499;001;ASJK92;2019_Nov_29_1453;iat_vr;60.01824554583567;
6;SCHWACH;negativ;q;0;2;2;14;q;1;1.598081700009061;001;ASJK92;2019_Nov_29_1453;iat_vr;60.01824554583567;
6;EINWANDFREI;positiv;p;0;3;3;16;p;1;1.0617250000068452;001;ASJK92;2019_Nov_29_1453;iat_vr;60.01824554583567;
6;GUT;positiv;p;0;4;4;19;p;1;0.8667573999991873;001;ASJK92;2019_Nov_29_1453;iat_vr;60.01824554583567;
6;SCHÄDLICH;negativ;q;0;5;5;13;q;1;0.812798599989037;001;ASJK92;2019_Nov_29_1453;iat_vr;60.01824554583567;
6;STADT;Gemacht;q;0;6;6;6;q;1;1.1321707000024617;001;ASJK92;2019_Nov_29_1453;iat_vr;60.01824554583567;
6;KLEIDER;Gemacht;q;0;7;7;7;q;1;0.8107353999948828;001;ASJK92;2019_Nov_29_1453;iat_vr;60.01824554583567;
6;SCHLECHT;negativ;q;0;8;8;11;q;1;1.6356000000087079;001;ASJK92;2019_Nov_29_1453;iat_vr;60.01824554583567;
6;AUSGEZEICHNET;positiv;p;0;9;9;15;p;1;0.8351838000089629;001;ASJK92;2019_Nov_29_1453;iat_vr;60.01824554583567;
6;POSITIV;positiv;p;0;10;10;18;p;1;0.6148764999961713;001;ASJK92;2019_Nov_29_1453;iat_vr;60.01824554583567;
6;NEGATIV;negativ;q;0;11;11;12;q;1;0.7798749999928987;001;ASJK92;2019_Nov_29_1453;iat_vr;60.01824554583567;
6;LAMPE;Gemacht;q;0;12;12;9;q;1;1.1639774000068428;001;ASJK92;2019_Nov_29_1453;iat_vr;60.01824554583567;
6;WASSER;Natur;p;0;13;13;1;p;1;1.945379500000854;001;ASJK92;2019_Nov_29_1453;iat_vr;60.01824554583567;
6;HERVORRAGEND;positiv;p;0;14;14;17;p;1;0.8169089000002714;001;ASJK92;2019_Nov_29_1453;iat_vr;60.01824554583567;
6;COMPUTER;Gemacht;q;0;15;15;8;q;1;0.8669215999980224;001;ASJK92;2019_Nov_29_1453;iat_vr;60.01824554583567;
6;SCHLIMM;negativ;q;0;16;16;10;q;1;0.6640715999965323;001;ASJK92;2019_Nov_29_1453;iat_vr;60.01824554583567;
6;BAUM;Natur;p;0;17;17;0;p;1;0.5652409000031184;001;ASJK92;2019_Nov_29_1453;iat_vr;60.01824554583567;
6;STEIN;Natur;p;0;18;18;4;p;1;0.5644478000031086;001;ASJK92;2019_Nov_29_1453;iat_vr;60.01824554583567;
6;GEBÄUDE;Gemacht;q;0;19;19;5;q;1;0.6316375000023982;001;ASJK92;2019_Nov_29_1453;iat_vr;60.01824554583567;
;;;;;;;;;;;001;ASJK92;2019_Nov_29_1453;iat_vr;60.01824554583567;
7;GEBÄUDE;Gemacht;q;0;0;0;5;q;1;3.1478935000050114;001;ASJK92;2019_Nov_29_1453;iat_vr;60.01824554583567;
7;EINWANDFREI;positiv;p;0;1;1;16;p;1;2.563981100000092;001;ASJK92;2019_Nov_29_1453;iat_vr;60.01824554583567;
7;POSITIV;positiv;p;0;2;2;18;p;1;2.844943800009787;001;ASJK92;2019_Nov_29_1453;iat_vr;60.01824554583567;
7;GUT;positiv;p;0;3;3;19;p;1;0.6326860999979544;001;ASJK92;2019_Nov_29_1453;iat_vr;60.01824554583567;
7;SCHÄDLICH;negativ;q;0;4;4;13;q;1;0.7628996999992523;001;ASJK92;2019_Nov_29_1453;iat_vr;60.01824554583567;
7;STEIN;Natur;p;0;5;5;4;p;1;0.7487227999954484;001;ASJK92;2019_Nov_29_1453;iat_vr;60.01824554583567;
7;LAMPE;Gemacht;q;0;6;6;9;q;1;0.6809200999996392;001;ASJK92;2019_Nov_29_1453;iat_vr;60.01824554583567;
7;TIER;Natur;p;0;7;7;3;p;1;0.8485807999968529;001;ASJK92;2019_Nov_29_1453;iat_vr;60.01824554583567;
7;SCHLIMM;negativ;q;0;8;8;10;q;1;0.7135836999950698;001;ASJK92;2019_Nov_29_1453;iat_vr;60.01824554583567;
7;NEGATIV;negativ;q;0;9;9;12;q;1;1.9013682999939192;001;ASJK92;2019_Nov_29_1453;iat_vr;60.01824554583567;
7;SCHWACH;negativ;q;0;10;10;14;q;1;0.695635800002492;001;ASJK92;2019_Nov_29_1453;iat_vr;60.01824554583567;
7;AUSGEZEICHNET;positiv;p;0;11;11;15;p;1;0.662353499996243;001;ASJK92;2019_Nov_29_1453;iat_vr;60.01824554583567;
7;STADT;Gemacht;q;0;12;12;6;q;1;1.080941399995936;001;ASJK92;2019_Nov_29_1453;iat_vr;60.01824554583567;
7;KLEIDER;Gemacht;q;0;13;13;7;q;1;0.7754544999916106;001;ASJK92;2019_Nov_29_1453;iat_vr;60.01824554583567;
7;HERVORRAGEND;positiv;p;0;14;14;17;p;1;0.695768899997347;001;ASJK92;2019_Nov_29_1453;iat_vr;60.01824554583567;
7;WASSER;Natur;p;0;15;15;1;p;1;0.6473354000045219;001;ASJK92;2019_Nov_29_1453;iat_vr;60.01824554583567;
7;BLUME;Natur;p;0;16;16;2;p;1;0.7155003000079887;001;ASJK92;2019_Nov_29_1453;iat_vr;60.01824554583567;
7;BAUM;Natur;p;0;17;17;0;p;1;0.6487363000051118;001;ASJK92;2019_Nov_29_1453;iat_vr;60.01824554583567;
7;COMPUTER;Gemacht;q;0;18;18;8;q;1;0.5648050000017975;001;ASJK92;2019_Nov_29_1453;iat_vr;60.01824554583567;
7;SCHLECHT;negativ;q;0;19;19;11;q;1;1.1466827999975067;001;ASJK92;2019_Nov_29_1453;iat_vr;60.01824554583567;
7;SCHÄDLICH;negativ;q;1;0;20;13;q;1;2.395814599993173;001;ASJK92;2019_Nov_29_1453;iat_vr;60.01824554583567;
7;COMPUTER;Gemacht;q;1;1;21;8;q;1;0.6443615000025602;001;ASJK92;2019_Nov_29_1453;iat_vr;60.01824554583567;
7;SCHLECHT;negativ;q;1;2;22;11;q;1;0.5143552999943495;001;ASJK92;2019_Nov_29_1453;iat_vr;60.01824554583567;
7;STADT;Gemacht;q;1;3;23;6;q;1;0.6986616000067443;001;ASJK92;2019_Nov_29_1453;iat_vr;60.01824554583567;
7;WASSER;Natur;p;1;4;24;1;p;1;0.6190084999980172;001;ASJK92;2019_Nov_29_1453;iat_vr;60.01824554583567;
7;SCHLIMM;negativ;q;1;5;25;10;q;1;1.296798299998045;001;ASJK92;2019_Nov_29_1453;iat_vr;60.01824554583567;
7;TIER;Natur;p;1;6;26;3;p;1;0.6178171000065049;001;ASJK92;2019_Nov_29_1453;iat_vr;60.01824554583567;
7;POSITIV;positiv;p;1;7;27;18;p;1;0.6461952999961795;001;ASJK92;2019_Nov_29_1453;iat_vr;60.01824554583567;
7;LAMPE;Gemacht;q;1;8;28;9;q;1;0.6142523000016809;001;ASJK92;2019_Nov_29_1453;iat_vr;60.01824554583567;
7;BAUM;Natur;p;1;9;29;0;p;1;0.4988398999994388;001;ASJK92;2019_Nov_29_1453;iat_vr;60.01824554583567;
7;KLEIDER;Gemacht;q;1;10;30;7;q;1;0.529934799997136;001;ASJK92;2019_Nov_29_1453;iat_vr;60.01824554583567;
7;EINWANDFREI;positiv;p;1;11;31;16;p;1;0.6626754000026267;001;ASJK92;2019_Nov_29_1453;iat_vr;60.01824554583567;
7;STEIN;Natur;p;1;12;32;4;p;1;1.2482918000023346;001;ASJK92;2019_Nov_29_1453;iat_vr;60.01824554583567;
7;NEGATIV;negativ;q;1;13;33;12;q;1;0.7628871000051731;001;ASJK92;2019_Nov_29_1453;iat_vr;60.01824554583567;
7;BLUME;Natur;p;1;14;34;2;p;1;0.5403326999949059;001;ASJK92;2019_Nov_29_1453;iat_vr;60.01824554583567;
7;AUSGEZEICHNET;positiv;p;1;15;35;15;p;1;0.6190074999904027;001;ASJK92;2019_Nov_29_1453;iat_vr;60.01824554583567;
7;GEBÄUDE;Gemacht;q;1;16;36;5;q;1;0.6533699999999953;001;ASJK92;2019_Nov_29_1453;iat_vr;60.01824554583567;
7;SCHWACH;negativ;q;1;17;37;14;q;1;1.1307261000038125;001;ASJK92;2019_Nov_29_1453;iat_vr;60.01824554583567;
7;HERVORRAGEND;positiv;p;1;18;38;17;p;1;3.3458142000017688;001;ASJK92;2019_Nov_29_1453;iat_vr;60.01824554583567;
7;GUT;positiv;p;1;19;39;19;p;1;0.6811122999934014;001;ASJK92;2019_Nov_29_1453;iat_vr;60.01824554583567;
;;;;;;;;;;;001;ASJK92;2019_Nov_29_1453;iat_vr;60.01824554583567;
