Block;Word;Category;CorrResp;trials.thisRepN;trials.thisTrialN;trials.thisN;trials.thisIndex;key_resp_2.keys;key_resp_2.corr;key_resp_2.rt;session;participant;date;expName;frameRate;
1;STADT;Gemacht;p;0;0;0;6;p;1;1.1716294000070775;002;ASLH01;2019_Nov_29_1318;iat_vr;59.897383801673605;
1;BAUM;Natur;q;0;1;1;0;q;1;0.6903151000005892;002;ASLH01;2019_Nov_29_1318;iat_vr;59.897383801673605;
1;GEBÄUDE;Gemacht;p;0;2;2;5;p;1;0.6225345999991987;002;ASLH01;2019_Nov_29_1318;iat_vr;59.897383801673605;
1;COMPUTER;Gemacht;p;0;3;3;8;p;1;0.686914899997646;002;ASLH01;2019_Nov_29_1318;iat_vr;59.897383801673605;
1;BLUME;Natur;q;0;4;4;2;q;1;0.5298951000004308;002;ASLH01;2019_Nov_29_1318;iat_vr;59.897383801673605;
1;LAMPE;Gemacht;p;0;5;5;9;q;0;0.43232890000217594;002;ASLH01;2019_Nov_29_1318;iat_vr;59.897383801673605;
1;KLEIDER;Gemacht;p;0;6;6;7;q;0;0.926508599994122;002;ASLH01;2019_Nov_29_1318;iat_vr;59.897383801673605;
1;TIER;Natur;q;0;7;7;3;q;1;0.7805796999891754;002;ASLH01;2019_Nov_29_1318;iat_vr;59.897383801673605;
1;WASSER;Natur;q;0;8;8;1;q;1;0.5938605999981519;002;ASLH01;2019_Nov_29_1318;iat_vr;59.897383801673605;
1;STEIN;Natur;q;0;9;9;4;q;1;0.4428641999984393;002;ASLH01;2019_Nov_29_1318;iat_vr;59.897383801673605;
1;BAUM;Natur;q;1;0;10;0;q;1;0.5654299000016181;002;ASLH01;2019_Nov_29_1318;iat_vr;59.897383801673605;
1;WASSER;Natur;q;1;1;11;1;q;1;0.6321217999939108;002;ASLH01;2019_Nov_29_1318;iat_vr;59.897383801673605;
1;COMPUTER;Gemacht;p;1;2;12;8;p;1;0.5503013000125065;002;ASLH01;2019_Nov_29_1318;iat_vr;59.897383801673605;
1;GEBÄUDE;Gemacht;p;1;3;13;5;p;1;0.4860208000027342;002;ASLH01;2019_Nov_29_1318;iat_vr;59.897383801673605;
1;TIER;Natur;q;1;4;14;3;q;1;0.680498899993836;002;ASLH01;2019_Nov_29_1318;iat_vr;59.897383801673605;
1;BLUME;Natur;q;1;5;15;2;q;1;1.0651657999987947;002;ASLH01;2019_Nov_29_1318;iat_vr;59.897383801673605;
1;KLEIDER;Gemacht;p;1;6;16;7;p;1;0.6799982999946224;002;ASLH01;2019_Nov_29_1318;iat_vr;59.897383801673605;
1;LAMPE;Gemacht;p;1;7;17;9;p;1;0.7678640999947675;002;ASLH01;2019_Nov_29_1318;iat_vr;59.897383801673605;
1;STEIN;Natur;q;1;8;18;4;q;1;0.8692592000006698;002;ASLH01;2019_Nov_29_1318;iat_vr;59.897383801673605;
1;STADT;Gemacht;p;1;9;19;6;p;1;1.3811712000024272;002;ASLH01;2019_Nov_29_1318;iat_vr;59.897383801673605;
;;;;;;;;;;;002;ASLH01;2019_Nov_29_1318;iat_vr;59.897383801673605;
2;POSITIV;positiv;p;0;0;0;8;p;1;0.9107645999902161;002;ASLH01;2019_Nov_29_1318;iat_vr;59.897383801673605;
2;SCHLECHT;negativ;q;0;1;1;1;q;1;0.6275924000074156;002;ASLH01;2019_Nov_29_1318;iat_vr;59.897383801673605;
2;SCHÄDLICH;negativ;q;0;2;2;3;q;1;0.6604356000025291;002;ASLH01;2019_Nov_29_1318;iat_vr;59.897383801673605;
2;HERVORRAGEND;positiv;p;0;3;3;7;p;1;0.677460599996266;002;ASLH01;2019_Nov_29_1318;iat_vr;59.897383801673605;
2;AUSGEZEICHNET;positiv;p;0;4;4;5;p;1;0.5169285000010859;002;ASLH01;2019_Nov_29_1318;iat_vr;59.897383801673605;
2;NEGATIV;negativ;q;0;5;5;2;q;1;0.6670709000027273;002;ASLH01;2019_Nov_29_1318;iat_vr;59.897383801673605;
2;EINWANDFREI;positiv;p;0;6;6;6;p;1;0.9526452999998583;002;ASLH01;2019_Nov_29_1318;iat_vr;59.897383801673605;
2;SCHLIMM;negativ;q;0;7;7;0;q;1;1.09663049998926;002;ASLH01;2019_Nov_29_1318;iat_vr;59.897383801673605;
2;GUT;positiv;p;0;8;8;9;p;1;0.764907899996615;002;ASLH01;2019_Nov_29_1318;iat_vr;59.897383801673605;
2;SCHWACH;negativ;q;0;9;9;4;q;1;0.8780192999984138;002;ASLH01;2019_Nov_29_1318;iat_vr;59.897383801673605;
2;HERVORRAGEND;positiv;p;1;0;10;7;q;0;0.5921123000007356;002;ASLH01;2019_Nov_29_1318;iat_vr;59.897383801673605;
2;SCHÄDLICH;negativ;q;1;1;11;3;q;1;0.6599923000030685;002;ASLH01;2019_Nov_29_1318;iat_vr;59.897383801673605;
2;SCHLECHT;negativ;q;1;2;12;1;q;1;0.7138951999950223;002;ASLH01;2019_Nov_29_1318;iat_vr;59.897383801673605;
2;GUT;positiv;p;1;3;13;9;p;1;0.6008841000002576;002;ASLH01;2019_Nov_29_1318;iat_vr;59.897383801673605;
2;SCHLIMM;negativ;q;1;4;14;0;q;1;0.7462864999979502;002;ASLH01;2019_Nov_29_1318;iat_vr;59.897383801673605;
2;NEGATIV;negativ;q;1;5;15;2;q;1;0.913415699993493;002;ASLH01;2019_Nov_29_1318;iat_vr;59.897383801673605;
2;POSITIV;positiv;p;1;6;16;8;p;1;0.680836100000306;002;ASLH01;2019_Nov_29_1318;iat_vr;59.897383801673605;
2;SCHWACH;negativ;q;1;7;17;4;q;1;0.7019364000007045;002;ASLH01;2019_Nov_29_1318;iat_vr;59.897383801673605;
2;EINWANDFREI;positiv;p;1;8;18;6;p;1;0.6503945000004023;002;ASLH01;2019_Nov_29_1318;iat_vr;59.897383801673605;
2;AUSGEZEICHNET;positiv;p;1;9;19;5;p;1;0.48360620001039933;002;ASLH01;2019_Nov_29_1318;iat_vr;59.897383801673605;
;;;;;;;;;;;002;ASLH01;2019_Nov_29_1318;iat_vr;59.897383801673605;
3;TIER;Natur;q;0;0;0;13;q;1;1.4142698999930872;002;ASLH01;2019_Nov_29_1318;iat_vr;59.897383801673605;
3;SCHÄDLICH;negativ;q;0;1;1;3;p;0;0.7861390000034589;002;ASLH01;2019_Nov_29_1318;iat_vr;59.897383801673605;
3;SCHWACH;negativ;q;0;2;2;4;q;1;2.8347956000070553;002;ASLH01;2019_Nov_29_1318;iat_vr;59.897383801673605;
3;BAUM;Natur;q;0;3;3;10;q;1;0.6949649000016507;002;ASLH01;2019_Nov_29_1318;iat_vr;59.897383801673605;
3;WASSER;Natur;q;0;4;4;11;q;1;0.5307349000067916;002;ASLH01;2019_Nov_29_1318;iat_vr;59.897383801673605;
3;SCHLIMM;negativ;q;0;5;5;0;q;1;1.0025526999961585;002;ASLH01;2019_Nov_29_1318;iat_vr;59.897383801673605;
3;SCHLECHT;negativ;q;0;6;6;1;q;1;0.6189947999955621;002;ASLH01;2019_Nov_29_1318;iat_vr;59.897383801673605;
3;NEGATIV;negativ;q;0;7;7;2;q;1;0.5343482000025688;002;ASLH01;2019_Nov_29_1318;iat_vr;59.897383801673605;
3;AUSGEZEICHNET;positiv;p;0;8;8;5;p;1;0.7242582999897422;002;ASLH01;2019_Nov_29_1318;iat_vr;59.897383801673605;
3;BLUME;Natur;q;0;9;9;12;q;1;0.8965316000103485;002;ASLH01;2019_Nov_29_1318;iat_vr;59.897383801673605;
3;COMPUTER;Gemacht;p;0;10;10;18;p;1;0.6955574000021443;002;ASLH01;2019_Nov_29_1318;iat_vr;59.897383801673605;
3;EINWANDFREI;positiv;p;0;11;11;6;p;1;0.7480246999912197;002;ASLH01;2019_Nov_29_1318;iat_vr;59.897383801673605;
3;LAMPE;Gemacht;p;0;12;12;19;p;1;0.5648810999991838;002;ASLH01;2019_Nov_29_1318;iat_vr;59.897383801673605;
3;KLEIDER;Gemacht;p;0;13;13;17;p;1;0.5639476999931503;002;ASLH01;2019_Nov_29_1318;iat_vr;59.897383801673605;
3;STEIN;Natur;q;0;14;14;14;p;0;0.5965924999909475;002;ASLH01;2019_Nov_29_1318;iat_vr;59.897383801673605;
3;POSITIV;positiv;p;0;15;15;8;q;0;0.8680560999928275;002;ASLH01;2019_Nov_29_1318;iat_vr;59.897383801673605;
3;GUT;positiv;p;0;16;16;9;p;1;0.8805330000031972;002;ASLH01;2019_Nov_29_1318;iat_vr;59.897383801673605;
3;GEBÄUDE;Gemacht;p;0;17;17;15;p;1;1.3252081999962684;002;ASLH01;2019_Nov_29_1318;iat_vr;59.897383801673605;
3;HERVORRAGEND;positiv;p;0;18;18;7;p;1;0.6625526999996509;002;ASLH01;2019_Nov_29_1318;iat_vr;59.897383801673605;
3;STADT;Gemacht;p;0;19;19;16;q;0;1.0144325000001118;002;ASLH01;2019_Nov_29_1318;iat_vr;59.897383801673605;
;;;;;;;;;;;002;ASLH01;2019_Nov_29_1318;iat_vr;59.897383801673605;
4;TIER;Natur;q;0;0;0;13;q;1;1.0108686000021407;002;ASLH01;2019_Nov_29_1318;iat_vr;59.897383801673605;
4;SCHLIMM;negativ;q;0;1;1;0;p;0;0.8458717000030447;002;ASLH01;2019_Nov_29_1318;iat_vr;59.897383801673605;
4;EINWANDFREI;positiv;p;0;2;2;6;p;1;0.7825120000052266;002;ASLH01;2019_Nov_29_1318;iat_vr;59.897383801673605;
4;NEGATIV;negativ;q;0;3;3;2;p;0;1.194911000013235;002;ASLH01;2019_Nov_29_1318;iat_vr;59.897383801673605;
4;SCHWACH;negativ;q;0;4;4;4;q;1;1.0477038999961223;002;ASLH01;2019_Nov_29_1318;iat_vr;59.897383801673605;
4;STEIN;Natur;q;0;5;5;14;q;1;1.0978452999988804;002;ASLH01;2019_Nov_29_1318;iat_vr;59.897383801673605;
4;COMPUTER;Gemacht;p;0;6;6;18;q;0;1.0644144999969285;002;ASLH01;2019_Nov_29_1318;iat_vr;59.897383801673605;
4;KLEIDER;Gemacht;p;0;7;7;17;p;1;0.7652250000101048;002;ASLH01;2019_Nov_29_1318;iat_vr;59.897383801673605;
4;GEBÄUDE;Gemacht;p;0;8;8;15;p;1;0.5636432000028435;002;ASLH01;2019_Nov_29_1318;iat_vr;59.897383801673605;
4;HERVORRAGEND;positiv;p;0;9;9;7;p;1;1.2959594999992987;002;ASLH01;2019_Nov_29_1318;iat_vr;59.897383801673605;
4;LAMPE;Gemacht;p;0;10;10;19;p;1;0.6200174999976298;002;ASLH01;2019_Nov_29_1318;iat_vr;59.897383801673605;
4;WASSER;Natur;q;0;11;11;11;p;0;0.4316502000001492;002;ASLH01;2019_Nov_29_1318;iat_vr;59.897383801673605;
4;BLUME;Natur;q;0;12;12;12;q;1;0.5310669000027701;002;ASLH01;2019_Nov_29_1318;iat_vr;59.897383801673605;
4;POSITIV;positiv;p;0;13;13;8;p;1;1.4954362999997102;002;ASLH01;2019_Nov_29_1318;iat_vr;59.897383801673605;
4;STADT;Gemacht;p;0;14;14;16;p;1;0.6653464999981225;002;ASLH01;2019_Nov_29_1318;iat_vr;59.897383801673605;
4;BAUM;Natur;q;0;15;15;10;q;1;0.9319152999960352;002;ASLH01;2019_Nov_29_1318;iat_vr;59.897383801673605;
4;SCHLECHT;negativ;q;0;16;16;1;q;1;0.7963750000053551;002;ASLH01;2019_Nov_29_1318;iat_vr;59.897383801673605;
4;GUT;positiv;p;0;17;17;9;p;1;0.6664003000041703;002;ASLH01;2019_Nov_29_1318;iat_vr;59.897383801673605;
4;AUSGEZEICHNET;positiv;p;0;18;18;5;p;1;0.7817741000035312;002;ASLH01;2019_Nov_29_1318;iat_vr;59.897383801673605;
4;SCHÄDLICH;negativ;q;0;19;19;3;p;0;0.6131815999979153;002;ASLH01;2019_Nov_29_1318;iat_vr;59.897383801673605;
4;AUSGEZEICHNET;positiv;p;1;0;20;5;p;1;0.9771737999981269;002;ASLH01;2019_Nov_29_1318;iat_vr;59.897383801673605;
4;TIER;Natur;q;1;1;21;13;q;1;0.7158144999993965;002;ASLH01;2019_Nov_29_1318;iat_vr;59.897383801673605;
4;SCHLECHT;negativ;q;1;2;22;1;q;1;2.064360600008513;002;ASLH01;2019_Nov_29_1318;iat_vr;59.897383801673605;
4;NEGATIV;negativ;q;1;3;23;2;q;1;0.9973745000024792;002;ASLH01;2019_Nov_29_1318;iat_vr;59.897383801673605;
4;KLEIDER;Gemacht;p;1;4;24;17;p;1;0.7922901000129059;002;ASLH01;2019_Nov_29_1318;iat_vr;59.897383801673605;
4;GUT;positiv;p;1;5;25;9;p;1;0.6825706999952672;002;ASLH01;2019_Nov_29_1318;iat_vr;59.897383801673605;
4;SCHWACH;negativ;q;1;6;26;4;q;1;0.8288213000050746;002;ASLH01;2019_Nov_29_1318;iat_vr;59.897383801673605;
4;BAUM;Natur;q;1;7;27;10;q;1;0.8140308000001824;002;ASLH01;2019_Nov_29_1318;iat_vr;59.897383801673605;
4;POSITIV;positiv;p;1;8;28;8;p;1;0.9982646999997087;002;ASLH01;2019_Nov_29_1318;iat_vr;59.897383801673605;
4;SCHÄDLICH;negativ;q;1;9;29;3;q;1;0.9449877000006381;002;ASLH01;2019_Nov_29_1318;iat_vr;59.897383801673605;
4;STADT;Gemacht;p;1;10;30;16;p;1;1.6068000000086613;002;ASLH01;2019_Nov_29_1318;iat_vr;59.897383801673605;
4;GEBÄUDE;Gemacht;p;1;11;31;15;p;1;0.5814742999937152;002;ASLH01;2019_Nov_29_1318;iat_vr;59.897383801673605;
4;HERVORRAGEND;positiv;p;1;12;32;7;p;1;1.1940790999942692;002;ASLH01;2019_Nov_29_1318;iat_vr;59.897383801673605;
4;EINWANDFREI;positiv;p;1;13;33;6;p;1;0.5964502999995602;002;ASLH01;2019_Nov_29_1318;iat_vr;59.897383801673605;
4;SCHLIMM;negativ;q;1;14;34;0;q;1;0.7154220999946119;002;ASLH01;2019_Nov_29_1318;iat_vr;59.897383801673605;
4;LAMPE;Gemacht;p;1;15;35;19;q;0;0.7671129999944242;002;ASLH01;2019_Nov_29_1318;iat_vr;59.897383801673605;
4;STEIN;Natur;q;1;16;36;14;q;1;0.6623630000103731;002;ASLH01;2019_Nov_29_1318;iat_vr;59.897383801673605;
4;BLUME;Natur;q;1;17;37;12;q;1;0.5481485000054818;002;ASLH01;2019_Nov_29_1318;iat_vr;59.897383801673605;
4;COMPUTER;Gemacht;p;1;18;38;18;p;1;0.7292356999969343;002;ASLH01;2019_Nov_29_1318;iat_vr;59.897383801673605;
4;WASSER;Natur;q;1;19;39;11;q;1;0.9814278999983799;002;ASLH01;2019_Nov_29_1318;iat_vr;59.897383801673605;
;;;;;;;;;;;002;ASLH01;2019_Nov_29_1318;iat_vr;59.897383801673605;
5;LAMPE;Gemacht;q;0;0;0;9;p;0;2.8827689999889117;002;ASLH01;2019_Nov_29_1318;iat_vr;59.897383801673605;
5;TIER;Natur;p;0;1;1;3;p;1;1.351310400001239;002;ASLH01;2019_Nov_29_1318;iat_vr;59.897383801673605;
5;WASSER;Natur;p;0;2;2;1;p;1;0.5992226000089431;002;ASLH01;2019_Nov_29_1318;iat_vr;59.897383801673605;
5;KLEIDER;Gemacht;q;0;3;3;7;q;1;0.6300789999950211;002;ASLH01;2019_Nov_29_1318;iat_vr;59.897383801673605;
5;GEBÄUDE;Gemacht;q;0;4;4;5;q;1;0.5121820999920601;002;ASLH01;2019_Nov_29_1318;iat_vr;59.897383801673605;
5;BLUME;Natur;p;0;5;5;2;p;1;0.6295717000029981;002;ASLH01;2019_Nov_29_1318;iat_vr;59.897383801673605;
5;COMPUTER;Gemacht;q;0;6;6;8;q;1;0.7811450999870431;002;ASLH01;2019_Nov_29_1318;iat_vr;59.897383801673605;
5;STEIN;Natur;p;0;7;7;4;p;1;0.6022578999982215;002;ASLH01;2019_Nov_29_1318;iat_vr;59.897383801673605;
5;BAUM;Natur;p;0;8;8;0;p;1;0.5652421999984654;002;ASLH01;2019_Nov_29_1318;iat_vr;59.897383801673605;
5;STADT;Gemacht;q;0;9;9;6;q;1;0.6980272999935551;002;ASLH01;2019_Nov_29_1318;iat_vr;59.897383801673605;
5;STEIN;Natur;p;1;0;10;4;p;1;0.6128101000067545;002;ASLH01;2019_Nov_29_1318;iat_vr;59.897383801673605;
5;LAMPE;Gemacht;q;1;1;11;9;q;1;0.6300646000017878;002;ASLH01;2019_Nov_29_1318;iat_vr;59.897383801673605;
5;TIER;Natur;p;1;2;12;3;p;1;0.61509350000415;002;ASLH01;2019_Nov_29_1318;iat_vr;59.897383801673605;
5;BAUM;Natur;p;1;3;13;0;p;1;0.6811354999954347;002;ASLH01;2019_Nov_29_1318;iat_vr;59.897383801673605;
5;COMPUTER;Gemacht;q;1;4;14;8;q;1;0.8972920999949565;002;ASLH01;2019_Nov_29_1318;iat_vr;59.897383801673605;
5;STADT;Gemacht;q;1;5;15;6;q;1;0.8471671000006609;002;ASLH01;2019_Nov_29_1318;iat_vr;59.897383801673605;
5;KLEIDER;Gemacht;q;1;6;16;7;p;0;0.7190253000007942;002;ASLH01;2019_Nov_29_1318;iat_vr;59.897383801673605;
5;WASSER;Natur;p;1;7;17;1;p;1;0.48124819999793544;002;ASLH01;2019_Nov_29_1318;iat_vr;59.897383801673605;
5;BLUME;Natur;p;1;8;18;2;p;1;0.4299062999925809;002;ASLH01;2019_Nov_29_1318;iat_vr;59.897383801673605;
5;GEBÄUDE;Gemacht;q;1;9;19;5;q;1;0.7312093999935314;002;ASLH01;2019_Nov_29_1318;iat_vr;59.897383801673605;
;;;;;;;;;;;002;ASLH01;2019_Nov_29_1318;iat_vr;59.897383801673605;
6;SCHLIMM;negativ;q;0;0;0;10;q;1;0.8380651000043144;002;ASLH01;2019_Nov_29_1318;iat_vr;59.897383801673605;
6;EINWANDFREI;positiv;p;0;1;1;16;p;1;1.3772090999991633;002;ASLH01;2019_Nov_29_1318;iat_vr;59.897383801673605;
6;STEIN;Natur;p;0;2;2;4;p;1;0.8799197000043932;002;ASLH01;2019_Nov_29_1318;iat_vr;59.897383801673605;
6;AUSGEZEICHNET;positiv;p;0;3;3;15;p;1;0.5421457999909762;002;ASLH01;2019_Nov_29_1318;iat_vr;59.897383801673605;
6;POSITIV;positiv;p;0;4;4;18;p;1;0.5457672000047751;002;ASLH01;2019_Nov_29_1318;iat_vr;59.897383801673605;
6;GUT;positiv;p;0;5;5;19;p;1;0.4493481000099564;002;ASLH01;2019_Nov_29_1318;iat_vr;59.897383801673605;
6;TIER;Natur;p;0;6;6;3;p;1;0.616014900006121;002;ASLH01;2019_Nov_29_1318;iat_vr;59.897383801673605;
6;SCHWACH;negativ;q;0;7;7;14;p;0;0.547441600007005;002;ASLH01;2019_Nov_29_1318;iat_vr;59.897383801673605;
6;SCHÄDLICH;negativ;q;0;8;8;13;q;1;0.8797315000119852;002;ASLH01;2019_Nov_29_1318;iat_vr;59.897383801673605;
6;GEBÄUDE;Gemacht;q;0;9;9;5;q;1;0.614687999986927;002;ASLH01;2019_Nov_29_1318;iat_vr;59.897383801673605;
6;KLEIDER;Gemacht;q;0;10;10;7;q;1;0.6482357999921078;002;ASLH01;2019_Nov_29_1318;iat_vr;59.897383801673605;
6;COMPUTER;Gemacht;q;0;11;11;8;q;1;0.5513694999972358;002;ASLH01;2019_Nov_29_1318;iat_vr;59.897383801673605;
6;STADT;Gemacht;q;0;12;12;6;q;1;0.5650509999977658;002;ASLH01;2019_Nov_29_1318;iat_vr;59.897383801673605;
6;NEGATIV;negativ;q;0;13;13;12;q;1;1.0974993000127142;002;ASLH01;2019_Nov_29_1318;iat_vr;59.897383801673605;
6;HERVORRAGEND;positiv;p;0;14;14;17;p;1;0.7099356000107946;002;ASLH01;2019_Nov_29_1318;iat_vr;59.897383801673605;
6;LAMPE;Gemacht;q;0;15;15;9;q;1;0.7977743999945233;002;ASLH01;2019_Nov_29_1318;iat_vr;59.897383801673605;
6;BLUME;Natur;p;0;16;16;2;p;1;0.5853921999951126;002;ASLH01;2019_Nov_29_1318;iat_vr;59.897383801673605;
6;WASSER;Natur;p;0;17;17;1;p;1;0.3983342999999877;002;ASLH01;2019_Nov_29_1318;iat_vr;59.897383801673605;
6;BAUM;Natur;p;0;18;18;0;p;1;0.49731760000577196;002;ASLH01;2019_Nov_29_1318;iat_vr;59.897383801673605;
6;SCHLECHT;negativ;q;0;19;19;11;q;1;0.7354123999975855;002;ASLH01;2019_Nov_29_1318;iat_vr;59.897383801673605;
;;;;;;;;;;;002;ASLH01;2019_Nov_29_1318;iat_vr;59.897383801673605;
7;BAUM;Natur;p;0;0;0;0;q;0;0.9495801000011852;002;ASLH01;2019_Nov_29_1318;iat_vr;59.897383801673605;
7;GUT;positiv;p;0;1;1;19;p;1;0.9837503999879118;002;ASLH01;2019_Nov_29_1318;iat_vr;59.897383801673605;
7;COMPUTER;Gemacht;q;0;2;2;8;q;1;0.7672468999953708;002;ASLH01;2019_Nov_29_1318;iat_vr;59.897383801673605;
7;BLUME;Natur;p;0;3;3;2;p;1;0.5669131000031484;002;ASLH01;2019_Nov_29_1318;iat_vr;59.897383801673605;
7;SCHLIMM;negativ;q;0;4;4;10;q;1;0.8170805999980075;002;ASLH01;2019_Nov_29_1318;iat_vr;59.897383801673605;
7;POSITIV;positiv;p;0;5;5;18;p;1;0.6974766000057571;002;ASLH01;2019_Nov_29_1318;iat_vr;59.897383801673605;
7;SCHÄDLICH;negativ;q;0;6;6;13;q;1;1.311076599988155;002;ASLH01;2019_Nov_29_1318;iat_vr;59.897383801673605;
7;AUSGEZEICHNET;positiv;p;0;7;7;15;p;1;0.5786164000019198;002;ASLH01;2019_Nov_29_1318;iat_vr;59.897383801673605;
7;STADT;Gemacht;q;0;8;8;6;p;0;1.3980350000056205;002;ASLH01;2019_Nov_29_1318;iat_vr;59.897383801673605;
7;KLEIDER;Gemacht;q;0;9;9;7;q;1;1.2148856999992859;002;ASLH01;2019_Nov_29_1318;iat_vr;59.897383801673605;
7;SCHWACH;negativ;q;0;10;10;14;q;1;0.49885940000240225;002;ASLH01;2019_Nov_29_1318;iat_vr;59.897383801673605;
7;WASSER;Natur;p;0;11;11;1;p;1;0.7984661000082269;002;ASLH01;2019_Nov_29_1318;iat_vr;59.897383801673605;
7;SCHLECHT;negativ;q;0;12;12;11;q;1;0.7478176000004169;002;ASLH01;2019_Nov_29_1318;iat_vr;59.897383801673605;
7;STEIN;Natur;p;0;13;13;4;p;1;0.6310024999984307;002;ASLH01;2019_Nov_29_1318;iat_vr;59.897383801673605;
7;NEGATIV;negativ;q;0;14;14;12;q;1;0.7483038000063971;002;ASLH01;2019_Nov_29_1318;iat_vr;59.897383801673605;
7;EINWANDFREI;positiv;p;0;15;15;16;p;1;1.1953983999992488;002;ASLH01;2019_Nov_29_1318;iat_vr;59.897383801673605;
7;TIER;Natur;p;0;16;16;3;p;1;0.5492306999949506;002;ASLH01;2019_Nov_29_1318;iat_vr;59.897383801673605;
7;LAMPE;Gemacht;q;0;17;17;9;q;1;0.7153309999994235;002;ASLH01;2019_Nov_29_1318;iat_vr;59.897383801673605;
7;GEBÄUDE;Gemacht;q;0;18;18;5;q;1;0.8468386000022292;002;ASLH01;2019_Nov_29_1318;iat_vr;59.897383801673605;
7;HERVORRAGEND;positiv;p;0;19;19;17;p;1;0.6123654999973951;002;ASLH01;2019_Nov_29_1318;iat_vr;59.897383801673605;
7;SCHLIMM;negativ;q;1;0;20;10;q;1;1.2146384999941802;002;ASLH01;2019_Nov_29_1318;iat_vr;59.897383801673605;
7;POSITIV;positiv;p;1;1;21;18;p;1;1.2477823000081116;002;ASLH01;2019_Nov_29_1318;iat_vr;59.897383801673605;
7;TIER;Natur;p;1;2;22;3;p;1;0.5183442999987165;002;ASLH01;2019_Nov_29_1318;iat_vr;59.897383801673605;
7;SCHÄDLICH;negativ;q;1;3;23;13;q;1;0.6973656000045594;002;ASLH01;2019_Nov_29_1318;iat_vr;59.897383801673605;
7;SCHWACH;negativ;q;1;4;24;14;q;1;0.8304947999858996;002;ASLH01;2019_Nov_29_1318;iat_vr;59.897383801673605;
7;KLEIDER;Gemacht;q;1;5;25;7;q;1;0.7454651000007289;002;ASLH01;2019_Nov_29_1318;iat_vr;59.897383801673605;
7;GUT;positiv;p;1;6;26;19;p;1;0.7796259999886388;002;ASLH01;2019_Nov_29_1318;iat_vr;59.897383801673605;
7;COMPUTER;Gemacht;q;1;7;27;8;q;1;0.7290637000114657;002;ASLH01;2019_Nov_29_1318;iat_vr;59.897383801673605;
7;EINWANDFREI;positiv;p;1;8;28;16;p;1;0.5678748000063933;002;ASLH01;2019_Nov_29_1318;iat_vr;59.897383801673605;
7;STEIN;Natur;p;1;9;29;4;p;1;0.6653017000062391;002;ASLH01;2019_Nov_29_1318;iat_vr;59.897383801673605;
7;LAMPE;Gemacht;q;1;10;30;9;q;1;0.615452699988964;002;ASLH01;2019_Nov_29_1318;iat_vr;59.897383801673605;
7;HERVORRAGEND;positiv;p;1;11;31;17;p;1;0.5788992999878246;002;ASLH01;2019_Nov_29_1318;iat_vr;59.897383801673605;
7;BLUME;Natur;p;1;12;32;2;p;1;0.5148184999998193;002;ASLH01;2019_Nov_29_1318;iat_vr;59.897383801673605;
7;STADT;Gemacht;q;1;13;33;6;p;0;0.5484128999960376;002;ASLH01;2019_Nov_29_1318;iat_vr;59.897383801673605;
7;GEBÄUDE;Gemacht;q;1;14;34;5;q;1;0.9466041999985464;002;ASLH01;2019_Nov_29_1318;iat_vr;59.897383801673605;
7;BAUM;Natur;p;1;15;35;0;p;1;0.5489057999948272;002;ASLH01;2019_Nov_29_1318;iat_vr;59.897383801673605;
7;SCHLECHT;negativ;q;1;16;36;11;q;1;0.862296499995864;002;ASLH01;2019_Nov_29_1318;iat_vr;59.897383801673605;
7;WASSER;Natur;p;1;17;37;1;p;1;0.46544520001043566;002;ASLH01;2019_Nov_29_1318;iat_vr;59.897383801673605;
7;AUSGEZEICHNET;positiv;p;1;18;38;15;p;1;0.5123839000007138;002;ASLH01;2019_Nov_29_1318;iat_vr;59.897383801673605;
7;NEGATIV;negativ;q;1;19;39;12;q;1;0.7299817000020994;002;ASLH01;2019_Nov_29_1318;iat_vr;59.897383801673605;
;;;;;;;;;;;002;ASLH01;2019_Nov_29_1318;iat_vr;59.897383801673605;
