Block;Word;Category;CorrResp;trials.thisRepN;trials.thisTrialN;trials.thisN;trials.thisIndex;key_resp_2.keys;key_resp_2.corr;key_resp_2.rt;session;participant;date;expName;frameRate;
1;TIER;Natur;q;0;0;0;3;q;1;0.864704099993105;002;ASLI98;2019_Nov_29_1231;iat_vr;59.86371427221458;
1;GEBÄUDE;Gemacht;p;0;1;1;5;p;1;0.5491156999923987;002;ASLI98;2019_Nov_29_1231;iat_vr;59.86371427221458;
1;BLUME;Natur;q;0;2;2;2;q;1;0.5649418000102742;002;ASLI98;2019_Nov_29_1231;iat_vr;59.86371427221458;
1;WASSER;Natur;q;0;3;3;1;q;1;0.5915568000054918;002;ASLI98;2019_Nov_29_1231;iat_vr;59.86371427221458;
1;BAUM;Natur;q;0;4;4;0;q;1;0.5305762000061804;002;ASLI98;2019_Nov_29_1231;iat_vr;59.86371427221458;
1;STEIN;Natur;q;0;5;5;4;q;1;0.5687197000079323;002;ASLI98;2019_Nov_29_1231;iat_vr;59.86371427221458;
1;COMPUTER;Gemacht;p;0;6;6;8;p;1;0.47251150000374764;002;ASLI98;2019_Nov_29_1231;iat_vr;59.86371427221458;
1;LAMPE;Gemacht;p;0;7;7;9;p;1;0.5321201000042493;002;ASLI98;2019_Nov_29_1231;iat_vr;59.86371427221458;
1;STADT;Gemacht;p;0;8;8;6;p;1;0.6024107999983244;002;ASLI98;2019_Nov_29_1231;iat_vr;59.86371427221458;
1;KLEIDER;Gemacht;p;0;9;9;7;p;1;0.5592884999932721;002;ASLI98;2019_Nov_29_1231;iat_vr;59.86371427221458;
1;KLEIDER;Gemacht;p;1;0;10;7;p;1;0.6005181000073208;002;ASLI98;2019_Nov_29_1231;iat_vr;59.86371427221458;
1;GEBÄUDE;Gemacht;p;1;1;11;5;p;1;0.6821898999914993;002;ASLI98;2019_Nov_29_1231;iat_vr;59.86371427221458;
1;STADT;Gemacht;p;1;2;12;6;q;0;0.5142322000028798;002;ASLI98;2019_Nov_29_1231;iat_vr;59.86371427221458;
1;WASSER;Natur;q;1;3;13;1;q;1;0.6355820999888238;002;ASLI98;2019_Nov_29_1231;iat_vr;59.86371427221458;
1;BLUME;Natur;q;1;4;14;2;q;1;0.4325167000060901;002;ASLI98;2019_Nov_29_1231;iat_vr;59.86371427221458;
1;LAMPE;Gemacht;p;1;5;15;9;p;1;0.6678092000074685;002;ASLI98;2019_Nov_29_1231;iat_vr;59.86371427221458;
1;COMPUTER;Gemacht;p;1;6;16;8;p;1;0.5311726000072667;002;ASLI98;2019_Nov_29_1231;iat_vr;59.86371427221458;
1;BAUM;Natur;q;1;7;17;0;q;1;0.6152098000020487;002;ASLI98;2019_Nov_29_1231;iat_vr;59.86371427221458;
1;STEIN;Natur;q;1;8;18;4;q;1;0.5823502000130247;002;ASLI98;2019_Nov_29_1231;iat_vr;59.86371427221458;
1;TIER;Natur;q;1;9;19;3;q;1;0.550447699992219;002;ASLI98;2019_Nov_29_1231;iat_vr;59.86371427221458;
;;;;;;;;;;;002;ASLI98;2019_Nov_29_1231;iat_vr;59.86371427221458;
2;HERVORRAGEND;positiv;p;0;0;0;7;p;1;0.6601057999941986;002;ASLI98;2019_Nov_29_1231;iat_vr;59.86371427221458;
2;NEGATIV;negativ;q;0;1;1;2;q;1;0.5314963999990141;002;ASLI98;2019_Nov_29_1231;iat_vr;59.86371427221458;
2;POSITIV;positiv;p;0;2;2;8;p;1;0.5844363999931375;002;ASLI98;2019_Nov_29_1231;iat_vr;59.86371427221458;
2;SCHÄDLICH;negativ;q;0;3;3;3;q;1;0.5805215000000317;002;ASLI98;2019_Nov_29_1231;iat_vr;59.86371427221458;
2;SCHLIMM;negativ;q;0;4;4;0;q;1;0.4970411999966018;002;ASLI98;2019_Nov_29_1231;iat_vr;59.86371427221458;
2;EINWANDFREI;positiv;p;0;5;5;6;p;1;0.5550610999925993;002;ASLI98;2019_Nov_29_1231;iat_vr;59.86371427221458;
2;AUSGEZEICHNET;positiv;p;0;6;6;5;p;1;0.5224279000103706;002;ASLI98;2019_Nov_29_1231;iat_vr;59.86371427221458;
2;SCHLECHT;negativ;q;0;7;7;1;q;1;0.5185314999980619;002;ASLI98;2019_Nov_29_1231;iat_vr;59.86371427221458;
2;SCHWACH;negativ;q;0;8;8;4;q;1;0.6292437000083737;002;ASLI98;2019_Nov_29_1231;iat_vr;59.86371427221458;
2;GUT;positiv;p;0;9;9;9;p;1;0.6141180999984499;002;ASLI98;2019_Nov_29_1231;iat_vr;59.86371427221458;
2;SCHÄDLICH;negativ;q;1;0;10;3;q;1;0.885149800000363;002;ASLI98;2019_Nov_29_1231;iat_vr;59.86371427221458;
2;HERVORRAGEND;positiv;p;1;1;11;7;p;1;0.6281952999997884;002;ASLI98;2019_Nov_29_1231;iat_vr;59.86371427221458;
2;SCHLECHT;negativ;q;1;2;12;1;q;1;0.5523518999980297;002;ASLI98;2019_Nov_29_1231;iat_vr;59.86371427221458;
2;EINWANDFREI;positiv;p;1;3;13;6;p;1;0.8323772000003373;002;ASLI98;2019_Nov_29_1231;iat_vr;59.86371427221458;
2;NEGATIV;negativ;q;1;4;14;2;p;0;0.5631908999930602;002;ASLI98;2019_Nov_29_1231;iat_vr;59.86371427221458;
2;AUSGEZEICHNET;positiv;p;1;5;15;5;p;1;0.6597194000059972;002;ASLI98;2019_Nov_29_1231;iat_vr;59.86371427221458;
2;SCHLIMM;negativ;q;1;6;16;0;q;1;0.5482254999951692;002;ASLI98;2019_Nov_29_1231;iat_vr;59.86371427221458;
2;POSITIV;positiv;p;1;7;17;8;p;1;0.6356849000003422;002;ASLI98;2019_Nov_29_1231;iat_vr;59.86371427221458;
2;GUT;positiv;p;1;8;18;9;p;1;0.5147384000010788;002;ASLI98;2019_Nov_29_1231;iat_vr;59.86371427221458;
2;SCHWACH;negativ;q;1;9;19;4;q;1;0.6134953000000678;002;ASLI98;2019_Nov_29_1231;iat_vr;59.86371427221458;
;;;;;;;;;;;002;ASLI98;2019_Nov_29_1231;iat_vr;59.86371427221458;
3;GUT;positiv;p;0;0;0;9;p;1;0.5948772000119789;002;ASLI98;2019_Nov_29_1231;iat_vr;59.86371427221458;
3;KLEIDER;Gemacht;p;0;1;1;17;p;1;0.6315359000000171;002;ASLI98;2019_Nov_29_1231;iat_vr;59.86371427221458;
3;WASSER;Natur;q;0;2;2;11;q;1;0.6015717999980552;002;ASLI98;2019_Nov_29_1231;iat_vr;59.86371427221458;
3;SCHWACH;negativ;q;0;3;3;4;q;1;0.5960773999977391;002;ASLI98;2019_Nov_29_1231;iat_vr;59.86371427221458;
3;SCHLIMM;negativ;q;0;4;4;0;q;1;0.6167113999981666;002;ASLI98;2019_Nov_29_1231;iat_vr;59.86371427221458;
3;GEBÄUDE;Gemacht;p;0;5;5;15;p;1;0.6812959999952;002;ASLI98;2019_Nov_29_1231;iat_vr;59.86371427221458;
3;NEGATIV;negativ;q;0;6;6;2;q;1;0.7008980000100564;002;ASLI98;2019_Nov_29_1231;iat_vr;59.86371427221458;
3;STADT;Gemacht;p;0;7;7;16;p;1;0.8685598000010941;002;ASLI98;2019_Nov_29_1231;iat_vr;59.86371427221458;
3;EINWANDFREI;positiv;p;0;8;8;6;p;1;0.7133470999979181;002;ASLI98;2019_Nov_29_1231;iat_vr;59.86371427221458;
3;AUSGEZEICHNET;positiv;p;0;9;9;5;p;1;0.5604693999921437;002;ASLI98;2019_Nov_29_1231;iat_vr;59.86371427221458;
3;STEIN;Natur;q;0;10;10;14;q;1;0.5686267999990378;002;ASLI98;2019_Nov_29_1231;iat_vr;59.86371427221458;
3;POSITIV;positiv;p;0;11;11;8;p;1;0.6175160000129836;002;ASLI98;2019_Nov_29_1231;iat_vr;59.86371427221458;
3;BLUME;Natur;q;0;12;12;12;q;1;0.5979305999935605;002;ASLI98;2019_Nov_29_1231;iat_vr;59.86371427221458;
3;LAMPE;Gemacht;p;0;13;13;19;p;1;0.732093900005566;002;ASLI98;2019_Nov_29_1231;iat_vr;59.86371427221458;
3;BAUM;Natur;q;0;14;14;10;q;1;0.7976014000014402;002;ASLI98;2019_Nov_29_1231;iat_vr;59.86371427221458;
3;SCHLECHT;negativ;q;0;15;15;1;q;1;0.8856132999935653;002;ASLI98;2019_Nov_29_1231;iat_vr;59.86371427221458;
3;HERVORRAGEND;positiv;p;0;16;16;7;p;1;0.6012007999961497;002;ASLI98;2019_Nov_29_1231;iat_vr;59.86371427221458;
3;TIER;Natur;q;0;17;17;13;q;1;0.715859800009639;002;ASLI98;2019_Nov_29_1231;iat_vr;59.86371427221458;
3;COMPUTER;Gemacht;p;0;18;18;18;p;1;0.7444374000042444;002;ASLI98;2019_Nov_29_1231;iat_vr;59.86371427221458;
3;SCHÄDLICH;negativ;q;0;19;19;3;q;1;0.7172668999992311;002;ASLI98;2019_Nov_29_1231;iat_vr;59.86371427221458;
;;;;;;;;;;;002;ASLI98;2019_Nov_29_1231;iat_vr;59.86371427221458;
4;SCHLIMM;negativ;q;0;0;0;0;q;1;0.6322617999976501;002;ASLI98;2019_Nov_29_1231;iat_vr;59.86371427221458;
4;GUT;positiv;p;0;1;1;9;p;1;0.551960800003144;002;ASLI98;2019_Nov_29_1231;iat_vr;59.86371427221458;
4;WASSER;Natur;q;0;2;2;11;q;1;0.5119684999954188;002;ASLI98;2019_Nov_29_1231;iat_vr;59.86371427221458;
4;BAUM;Natur;q;0;3;3;10;q;1;0.6362676999997348;002;ASLI98;2019_Nov_29_1231;iat_vr;59.86371427221458;
4;POSITIV;positiv;p;0;4;4;8;p;1;0.5831842999905348;002;ASLI98;2019_Nov_29_1231;iat_vr;59.86371427221458;
4;SCHÄDLICH;negativ;q;0;5;5;3;q;1;0.5791181999957189;002;ASLI98;2019_Nov_29_1231;iat_vr;59.86371427221458;
4;GEBÄUDE;Gemacht;p;0;6;6;15;p;1;0.6308954999985872;002;ASLI98;2019_Nov_29_1231;iat_vr;59.86371427221458;
4;STADT;Gemacht;p;0;7;7;16;p;1;0.6319737000012537;002;ASLI98;2019_Nov_29_1231;iat_vr;59.86371427221458;
4;HERVORRAGEND;positiv;p;0;8;8;7;p;1;0.6253010999935213;002;ASLI98;2019_Nov_29_1231;iat_vr;59.86371427221458;
4;AUSGEZEICHNET;positiv;p;0;9;9;5;p;1;0.6007534000091255;002;ASLI98;2019_Nov_29_1231;iat_vr;59.86371427221458;
4;EINWANDFREI;positiv;p;0;10;10;6;p;1;0.6670350999920629;002;ASLI98;2019_Nov_29_1231;iat_vr;59.86371427221458;
4;TIER;Natur;q;0;11;11;13;q;1;0.6690080999978818;002;ASLI98;2019_Nov_29_1231;iat_vr;59.86371427221458;
4;STEIN;Natur;q;0;12;12;14;q;1;0.5511206000082893;002;ASLI98;2019_Nov_29_1231;iat_vr;59.86371427221458;
4;COMPUTER;Gemacht;p;0;13;13;18;p;1;0.6175189999921713;002;ASLI98;2019_Nov_29_1231;iat_vr;59.86371427221458;
4;KLEIDER;Gemacht;p;0;14;14;17;p;1;0.57963939999172;002;ASLI98;2019_Nov_29_1231;iat_vr;59.86371427221458;
4;SCHLECHT;negativ;q;0;15;15;1;q;1;0.6488837000069907;002;ASLI98;2019_Nov_29_1231;iat_vr;59.86371427221458;
4;BLUME;Natur;q;0;16;16;12;q;1;0.6638398999930359;002;ASLI98;2019_Nov_29_1231;iat_vr;59.86371427221458;
4;SCHWACH;negativ;q;0;17;17;4;q;1;0.6020261000085156;002;ASLI98;2019_Nov_29_1231;iat_vr;59.86371427221458;
4;LAMPE;Gemacht;p;0;18;18;19;p;1;0.5983628000103636;002;ASLI98;2019_Nov_29_1231;iat_vr;59.86371427221458;
4;NEGATIV;negativ;q;0;19;19;2;q;1;0.648087099994882;002;ASLI98;2019_Nov_29_1231;iat_vr;59.86371427221458;
4;NEGATIV;negativ;q;1;0;20;2;q;1;0.5670149000070523;002;ASLI98;2019_Nov_29_1231;iat_vr;59.86371427221458;
4;GUT;positiv;p;1;1;21;9;p;1;0.6140239000087604;002;ASLI98;2019_Nov_29_1231;iat_vr;59.86371427221458;
4;LAMPE;Gemacht;p;1;2;22;19;p;1;0.6984889000013936;002;ASLI98;2019_Nov_29_1231;iat_vr;59.86371427221458;
4;SCHLECHT;negativ;q;1;3;23;1;q;1;0.5501973000064027;002;ASLI98;2019_Nov_29_1231;iat_vr;59.86371427221458;
4;SCHÄDLICH;negativ;q;1;4;24;3;q;1;0.5802565000049071;002;ASLI98;2019_Nov_29_1231;iat_vr;59.86371427221458;
4;AUSGEZEICHNET;positiv;p;1;5;25;5;p;1;0.595126900007017;002;ASLI98;2019_Nov_29_1231;iat_vr;59.86371427221458;
4;TIER;Natur;q;1;6;26;13;q;1;0.5684517999907257;002;ASLI98;2019_Nov_29_1231;iat_vr;59.86371427221458;
4;STADT;Gemacht;p;1;7;27;16;p;1;0.548518099996727;002;ASLI98;2019_Nov_29_1231;iat_vr;59.86371427221458;
4;BAUM;Natur;q;1;8;28;10;q;1;0.6325087000004714;002;ASLI98;2019_Nov_29_1231;iat_vr;59.86371427221458;
4;STEIN;Natur;q;1;9;29;14;q;1;0.5524006000050576;002;ASLI98;2019_Nov_29_1231;iat_vr;59.86371427221458;
4;HERVORRAGEND;positiv;p;1;10;30;7;p;1;0.5912532000074862;002;ASLI98;2019_Nov_29_1231;iat_vr;59.86371427221458;
4;BLUME;Natur;q;1;11;31;12;q;1;0.601276900008088;002;ASLI98;2019_Nov_29_1231;iat_vr;59.86371427221458;
4;SCHLIMM;negativ;q;1;12;32;0;q;1;0.6302541999903042;002;ASLI98;2019_Nov_29_1231;iat_vr;59.86371427221458;
4;WASSER;Natur;q;1;13;33;11;q;1;0.5472458000003826;002;ASLI98;2019_Nov_29_1231;iat_vr;59.86371427221458;
4;EINWANDFREI;positiv;p;1;14;34;6;p;1;0.5853315999993356;002;ASLI98;2019_Nov_29_1231;iat_vr;59.86371427221458;
4;GEBÄUDE;Gemacht;p;1;15;35;15;p;1;0.564079000003403;002;ASLI98;2019_Nov_29_1231;iat_vr;59.86371427221458;
4;COMPUTER;Gemacht;p;1;16;36;18;q;0;0.5630153999954928;002;ASLI98;2019_Nov_29_1231;iat_vr;59.86371427221458;
4;POSITIV;positiv;p;1;17;37;8;p;1;1.048127599991858;002;ASLI98;2019_Nov_29_1231;iat_vr;59.86371427221458;
4;KLEIDER;Gemacht;p;1;18;38;17;p;1;0.6113763000030303;002;ASLI98;2019_Nov_29_1231;iat_vr;59.86371427221458;
4;SCHWACH;negativ;q;1;19;39;4;q;1;0.5297018999990541;002;ASLI98;2019_Nov_29_1231;iat_vr;59.86371427221458;
;;;;;;;;;;;002;ASLI98;2019_Nov_29_1231;iat_vr;59.86371427221458;
5;KLEIDER;Gemacht;q;0;0;0;7;q;1;0.6537581000011414;002;ASLI98;2019_Nov_29_1231;iat_vr;59.86371427221458;
5;BAUM;Natur;p;0;1;1;0;p;1;0.648814800006221;002;ASLI98;2019_Nov_29_1231;iat_vr;59.86371427221458;
5;GEBÄUDE;Gemacht;q;0;2;2;5;q;1;0.6772155000071507;002;ASLI98;2019_Nov_29_1231;iat_vr;59.86371427221458;
5;TIER;Natur;p;0;3;3;3;p;1;0.668345700003556;002;ASLI98;2019_Nov_29_1231;iat_vr;59.86371427221458;
5;STEIN;Natur;p;0;4;4;4;p;1;0.6330272000050172;002;ASLI98;2019_Nov_29_1231;iat_vr;59.86371427221458;
5;STADT;Gemacht;q;0;5;5;6;q;1;0.6282754000130808;002;ASLI98;2019_Nov_29_1231;iat_vr;59.86371427221458;
5;LAMPE;Gemacht;q;0;6;6;9;q;1;0.53413780000119;002;ASLI98;2019_Nov_29_1231;iat_vr;59.86371427221458;
5;BLUME;Natur;p;0;7;7;2;p;1;0.5291569999972126;002;ASLI98;2019_Nov_29_1231;iat_vr;59.86371427221458;
5;WASSER;Natur;p;0;8;8;1;p;1;0.6507760000095004;002;ASLI98;2019_Nov_29_1231;iat_vr;59.86371427221458;
5;COMPUTER;Gemacht;q;0;9;9;8;q;1;0.5814436999935424;002;ASLI98;2019_Nov_29_1231;iat_vr;59.86371427221458;
5;STEIN;Natur;p;1;0;10;4;p;1;0.6177328000048874;002;ASLI98;2019_Nov_29_1231;iat_vr;59.86371427221458;
5;KLEIDER;Gemacht;q;1;1;11;7;q;1;0.5653841999883298;002;ASLI98;2019_Nov_29_1231;iat_vr;59.86371427221458;
5;BAUM;Natur;p;1;2;12;0;p;1;0.5460739999980433;002;ASLI98;2019_Nov_29_1231;iat_vr;59.86371427221458;
5;STADT;Gemacht;q;1;3;13;6;q;1;0.6185075999965193;002;ASLI98;2019_Nov_29_1231;iat_vr;59.86371427221458;
5;TIER;Natur;p;1;4;14;3;p;1;0.6148861999972723;002;ASLI98;2019_Nov_29_1231;iat_vr;59.86371427221458;
5;COMPUTER;Gemacht;q;1;5;15;8;q;1;0.5010462000063853;002;ASLI98;2019_Nov_29_1231;iat_vr;59.86371427221458;
5;WASSER;Natur;p;1;6;16;1;p;1;0.5858697000076063;002;ASLI98;2019_Nov_29_1231;iat_vr;59.86371427221458;
5;BLUME;Natur;p;1;7;17;2;q;0;0.5188158000091789;002;ASLI98;2019_Nov_29_1231;iat_vr;59.86371427221458;
5;GEBÄUDE;Gemacht;q;1;8;18;5;q;1;0.9125542000110727;002;ASLI98;2019_Nov_29_1231;iat_vr;59.86371427221458;
5;LAMPE;Gemacht;q;1;9;19;9;q;1;0.7182813999970676;002;ASLI98;2019_Nov_29_1231;iat_vr;59.86371427221458;
;;;;;;;;;;;002;ASLI98;2019_Nov_29_1231;iat_vr;59.86371427221458;
6;SCHLIMM;negativ;q;0;0;0;10;q;1;0.6997185000072932;002;ASLI98;2019_Nov_29_1231;iat_vr;59.86371427221458;
6;BLUME;Natur;p;0;1;1;2;p;1;0.732012799999211;002;ASLI98;2019_Nov_29_1231;iat_vr;59.86371427221458;
6;HERVORRAGEND;positiv;p;0;2;2;17;p;1;0.5623781000031158;002;ASLI98;2019_Nov_29_1231;iat_vr;59.86371427221458;
6;STADT;Gemacht;q;0;3;3;6;q;1;0.6174865000066347;002;ASLI98;2019_Nov_29_1231;iat_vr;59.86371427221458;
6;POSITIV;positiv;p;0;4;4;18;p;1;1.034317400000873;002;ASLI98;2019_Nov_29_1231;iat_vr;59.86371427221458;
6;GEBÄUDE;Gemacht;q;0;5;5;5;q;1;0.6023014999955194;002;ASLI98;2019_Nov_29_1231;iat_vr;59.86371427221458;
6;NEGATIV;negativ;q;0;6;6;12;q;1;0.6654383999994025;002;ASLI98;2019_Nov_29_1231;iat_vr;59.86371427221458;
6;GUT;positiv;p;0;7;7;19;p;1;0.5315545000048587;002;ASLI98;2019_Nov_29_1231;iat_vr;59.86371427221458;
6;BAUM;Natur;p;0;8;8;0;p;1;0.6998218000080669;002;ASLI98;2019_Nov_29_1231;iat_vr;59.86371427221458;
6;SCHLECHT;negativ;q;0;9;9;11;q;1;0.5179881000076421;002;ASLI98;2019_Nov_29_1231;iat_vr;59.86371427221458;
6;SCHÄDLICH;negativ;q;0;10;10;13;q;1;0.4796325000061188;002;ASLI98;2019_Nov_29_1231;iat_vr;59.86371427221458;
6;COMPUTER;Gemacht;q;0;11;11;8;q;1;0.5447937999997521;002;ASLI98;2019_Nov_29_1231;iat_vr;59.86371427221458;
6;WASSER;Natur;p;0;12;12;1;p;1;0.5988722999900347;002;ASLI98;2019_Nov_29_1231;iat_vr;59.86371427221458;
6;KLEIDER;Gemacht;q;0;13;13;7;q;1;0.7132431999925757;002;ASLI98;2019_Nov_29_1231;iat_vr;59.86371427221458;
6;TIER;Natur;p;0;14;14;3;p;1;0.5982976999948733;002;ASLI98;2019_Nov_29_1231;iat_vr;59.86371427221458;
6;EINWANDFREI;positiv;p;0;15;15;16;p;1;0.5609169999952428;002;ASLI98;2019_Nov_29_1231;iat_vr;59.86371427221458;
6;AUSGEZEICHNET;positiv;p;0;16;16;15;p;1;0.5296226999926148;002;ASLI98;2019_Nov_29_1231;iat_vr;59.86371427221458;
6;LAMPE;Gemacht;q;0;17;17;9;q;1;0.5628366000019014;002;ASLI98;2019_Nov_29_1231;iat_vr;59.86371427221458;
6;SCHWACH;negativ;q;0;18;18;14;q;1;0.6508858000015607;002;ASLI98;2019_Nov_29_1231;iat_vr;59.86371427221458;
6;STEIN;Natur;p;0;19;19;4;q;0;0.57906930000172;002;ASLI98;2019_Nov_29_1231;iat_vr;59.86371427221458;
;;;;;;;;;;;002;ASLI98;2019_Nov_29_1231;iat_vr;59.86371427221458;
7;BLUME;Natur;p;0;0;0;2;p;1;0.5693254999932833;002;ASLI98;2019_Nov_29_1231;iat_vr;59.86371427221458;
7;SCHLIMM;negativ;q;0;1;1;10;q;1;0.4660693999903742;002;ASLI98;2019_Nov_29_1231;iat_vr;59.86371427221458;
7;WASSER;Natur;p;0;2;2;1;p;1;0.6967309000028763;002;ASLI98;2019_Nov_29_1231;iat_vr;59.86371427221458;
7;AUSGEZEICHNET;positiv;p;0;3;3;15;p;1;0.5251882000011392;002;ASLI98;2019_Nov_29_1231;iat_vr;59.86371427221458;
7;BAUM;Natur;p;0;4;4;0;p;1;0.5155188999924576;002;ASLI98;2019_Nov_29_1231;iat_vr;59.86371427221458;
7;POSITIV;positiv;p;0;5;5;18;p;1;0.5622467999928631;002;ASLI98;2019_Nov_29_1231;iat_vr;59.86371427221458;
7;SCHÄDLICH;negativ;q;0;6;6;13;q;1;0.5116779000090901;002;ASLI98;2019_Nov_29_1231;iat_vr;59.86371427221458;
7;SCHWACH;negativ;q;0;7;7;14;q;1;0.47937570000067353;002;ASLI98;2019_Nov_29_1231;iat_vr;59.86371427221458;
7;GUT;positiv;p;0;8;8;19;p;1;0.48293339999509044;002;ASLI98;2019_Nov_29_1231;iat_vr;59.86371427221458;
7;EINWANDFREI;positiv;p;0;9;9;16;p;1;0.5523156000126619;002;ASLI98;2019_Nov_29_1231;iat_vr;59.86371427221458;
7;STEIN;Natur;p;0;10;10;4;p;1;0.5484087000077125;002;ASLI98;2019_Nov_29_1231;iat_vr;59.86371427221458;
7;HERVORRAGEND;positiv;p;0;11;11;17;p;1;0.5786134000081802;002;ASLI98;2019_Nov_29_1231;iat_vr;59.86371427221458;
7;KLEIDER;Gemacht;q;0;12;12;7;q;1;0.5525794999994105;002;ASLI98;2019_Nov_29_1231;iat_vr;59.86371427221458;
7;SCHLECHT;negativ;q;0;13;13;11;q;1;0.5480262000055518;002;ASLI98;2019_Nov_29_1231;iat_vr;59.86371427221458;
7;NEGATIV;negativ;q;0;14;14;12;q;1;0.6127764999982901;002;ASLI98;2019_Nov_29_1231;iat_vr;59.86371427221458;
7;STADT;Gemacht;q;0;15;15;6;q;1;0.6023599000036484;002;ASLI98;2019_Nov_29_1231;iat_vr;59.86371427221458;
7;COMPUTER;Gemacht;q;0;16;16;8;q;1;0.6111215000128141;002;ASLI98;2019_Nov_29_1231;iat_vr;59.86371427221458;
7;TIER;Natur;p;0;17;17;3;p;1;0.5642588000046089;002;ASLI98;2019_Nov_29_1231;iat_vr;59.86371427221458;
7;LAMPE;Gemacht;q;0;18;18;9;q;1;0.568891300004907;002;ASLI98;2019_Nov_29_1231;iat_vr;59.86371427221458;
7;GEBÄUDE;Gemacht;q;0;19;19;5;q;1;0.6483936000004178;002;ASLI98;2019_Nov_29_1231;iat_vr;59.86371427221458;
7;KLEIDER;Gemacht;q;1;0;20;7;q;1;0.630787899994175;002;ASLI98;2019_Nov_29_1231;iat_vr;59.86371427221458;
7;HERVORRAGEND;positiv;p;1;1;21;17;p;1;0.5278014000068652;002;ASLI98;2019_Nov_29_1231;iat_vr;59.86371427221458;
7;LAMPE;Gemacht;q;1;2;22;9;q;1;0.5851465000014286;002;ASLI98;2019_Nov_29_1231;iat_vr;59.86371427221458;
7;BLUME;Natur;p;1;3;23;2;p;1;0.5968086000066251;002;ASLI98;2019_Nov_29_1231;iat_vr;59.86371427221458;
7;GEBÄUDE;Gemacht;q;1;4;24;5;q;1;0.5347291000070982;002;ASLI98;2019_Nov_29_1231;iat_vr;59.86371427221458;
7;STEIN;Natur;p;1;5;25;4;p;1;0.5405209000018658;002;ASLI98;2019_Nov_29_1231;iat_vr;59.86371427221458;
7;SCHWACH;negativ;q;1;6;26;14;q;1;0.5816215000086231;002;ASLI98;2019_Nov_29_1231;iat_vr;59.86371427221458;
7;AUSGEZEICHNET;positiv;p;1;7;27;15;p;1;2.160624900003313;002;ASLI98;2019_Nov_29_1231;iat_vr;59.86371427221458;
7;TIER;Natur;p;1;8;28;3;p;1;0.629736300004879;002;ASLI98;2019_Nov_29_1231;iat_vr;59.86371427221458;
7;SCHLECHT;negativ;q;1;9;29;11;q;1;0.5806397999986075;002;ASLI98;2019_Nov_29_1231;iat_vr;59.86371427221458;
7;GUT;positiv;p;1;10;30;19;p;1;0.5337186999968253;002;ASLI98;2019_Nov_29_1231;iat_vr;59.86371427221458;
7;COMPUTER;Gemacht;q;1;11;31;8;q;1;0.6302168000111124;002;ASLI98;2019_Nov_29_1231;iat_vr;59.86371427221458;
7;BAUM;Natur;p;1;12;32;0;p;1;0.5354160999995656;002;ASLI98;2019_Nov_29_1231;iat_vr;59.86371427221458;
7;POSITIV;positiv;p;1;13;33;18;p;1;0.49673850000544917;002;ASLI98;2019_Nov_29_1231;iat_vr;59.86371427221458;
7;NEGATIV;negativ;q;1;14;34;12;q;1;0.5969254999945406;002;ASLI98;2019_Nov_29_1231;iat_vr;59.86371427221458;
7;SCHLIMM;negativ;q;1;15;35;10;q;1;0.5121663000027183;002;ASLI98;2019_Nov_29_1231;iat_vr;59.86371427221458;
7;WASSER;Natur;p;1;16;36;1;p;1;0.5299100999982329;002;ASLI98;2019_Nov_29_1231;iat_vr;59.86371427221458;
7;SCHÄDLICH;negativ;q;1;17;37;13;q;1;0.5335301000013715;002;ASLI98;2019_Nov_29_1231;iat_vr;59.86371427221458;
7;STADT;Gemacht;q;1;18;38;6;p;0;0.49864659999730065;002;ASLI98;2019_Nov_29_1231;iat_vr;59.86371427221458;
7;EINWANDFREI;positiv;p;1;19;39;16;p;1;0.5525466999970376;002;ASLI98;2019_Nov_29_1231;iat_vr;59.86371427221458;
;;;;;;;;;;;002;ASLI98;2019_Nov_29_1231;iat_vr;59.86371427221458;
