Block;Word;Category;CorrResp;trials.thisRepN;trials.thisTrialN;trials.thisN;trials.thisIndex;key_resp_2.keys;key_resp_2.corr;key_resp_2.rt;session;participant;date;expName;frameRate;
1;COMPUTER;Gemacht;p;0;0;0;8;p;1;0.9601420999970287;002;ASLK98;2019_Nov_29_1637;iat_vr;59.91773295053016;
1;BLUME;Natur;q;0;1;1;2;q;1;0.6574013999925228;002;ASLK98;2019_Nov_29_1637;iat_vr;59.91773295053016;
1;TIER;Natur;q;0;2;2;3;q;1;0.6354983000055654;002;ASLK98;2019_Nov_29_1637;iat_vr;59.91773295053016;
1;WASSER;Natur;q;0;3;3;1;q;1;0.66114209999796;002;ASLK98;2019_Nov_29_1637;iat_vr;59.91773295053016;
1;STEIN;Natur;q;0;4;4;4;q;1;0.6302299000089988;002;ASLK98;2019_Nov_29_1637;iat_vr;59.91773295053016;
1;STADT;Gemacht;p;0;5;5;6;p;1;0.6115492999961134;002;ASLK98;2019_Nov_29_1637;iat_vr;59.91773295053016;
1;GEBÄUDE;Gemacht;p;0;6;6;5;p;1;0.6033810999942943;002;ASLK98;2019_Nov_29_1637;iat_vr;59.91773295053016;
1;KLEIDER;Gemacht;p;0;7;7;7;p;1;0.5509002000035252;002;ASLK98;2019_Nov_29_1637;iat_vr;59.91773295053016;
1;BAUM;Natur;q;0;8;8;0;q;1;0.5843783000018448;002;ASLK98;2019_Nov_29_1637;iat_vr;59.91773295053016;
1;LAMPE;Gemacht;p;0;9;9;9;p;1;0.6317965000052936;002;ASLK98;2019_Nov_29_1637;iat_vr;59.91773295053016;
1;BLUME;Natur;q;1;0;10;2;q;1;0.5351555999950506;002;ASLK98;2019_Nov_29_1637;iat_vr;59.91773295053016;
1;TIER;Natur;q;1;1;11;3;q;1;0.6492913999973098;002;ASLK98;2019_Nov_29_1637;iat_vr;59.91773295053016;
1;WASSER;Natur;q;1;2;12;1;q;1;0.6792309000011301;002;ASLK98;2019_Nov_29_1637;iat_vr;59.91773295053016;
1;BAUM;Natur;q;1;3;13;0;q;1;0.5815877999993972;002;ASLK98;2019_Nov_29_1637;iat_vr;59.91773295053016;
1;STADT;Gemacht;p;1;4;14;6;p;1;0.5487695000047097;002;ASLK98;2019_Nov_29_1637;iat_vr;59.91773295053016;
1;STEIN;Natur;q;1;5;15;4;q;1;1.1145737000042573;002;ASLK98;2019_Nov_29_1637;iat_vr;59.91773295053016;
1;COMPUTER;Gemacht;p;1;6;16;8;p;1;0.6814622999954736;002;ASLK98;2019_Nov_29_1637;iat_vr;59.91773295053016;
1;LAMPE;Gemacht;p;1;7;17;9;p;1;0.8647282000019914;002;ASLK98;2019_Nov_29_1637;iat_vr;59.91773295053016;
1;KLEIDER;Gemacht;p;1;8;18;7;p;1;0.7956412000057753;002;ASLK98;2019_Nov_29_1637;iat_vr;59.91773295053016;
1;GEBÄUDE;Gemacht;p;1;9;19;5;p;1;0.5803856999991694;002;ASLK98;2019_Nov_29_1637;iat_vr;59.91773295053016;
;;;;;;;;;;;002;ASLK98;2019_Nov_29_1637;iat_vr;59.91773295053016;
2;EINWANDFREI;positiv;p;0;0;0;6;p;1;0.9438616999977967;002;ASLK98;2019_Nov_29_1637;iat_vr;59.91773295053016;
2;SCHÄDLICH;negativ;q;0;1;1;3;q;1;0.5666693999955896;002;ASLK98;2019_Nov_29_1637;iat_vr;59.91773295053016;
2;AUSGEZEICHNET;positiv;p;0;2;2;5;p;1;0.5186564000032376;002;ASLK98;2019_Nov_29_1637;iat_vr;59.91773295053016;
2;SCHLECHT;negativ;q;0;3;3;1;q;1;0.5183935999957612;002;ASLK98;2019_Nov_29_1637;iat_vr;59.91773295053016;
2;HERVORRAGEND;positiv;p;0;4;4;7;p;1;0.804698300009477;002;ASLK98;2019_Nov_29_1637;iat_vr;59.91773295053016;
2;SCHLIMM;negativ;q;0;5;5;0;q;1;0.5682532000064384;002;ASLK98;2019_Nov_29_1637;iat_vr;59.91773295053016;
2;NEGATIV;negativ;q;0;6;6;2;q;1;0.6251267000043299;002;ASLK98;2019_Nov_29_1637;iat_vr;59.91773295053016;
2;POSITIV;positiv;p;0;7;7;8;p;1;0.7187320999946678;002;ASLK98;2019_Nov_29_1637;iat_vr;59.91773295053016;
2;SCHWACH;negativ;q;0;8;8;4;q;1;0.6290482999902451;002;ASLK98;2019_Nov_29_1637;iat_vr;59.91773295053016;
2;GUT;positiv;p;0;9;9;9;p;1;0.6153342000034172;002;ASLK98;2019_Nov_29_1637;iat_vr;59.91773295053016;
2;EINWANDFREI;positiv;p;1;0;10;6;p;1;0.6192333000071812;002;ASLK98;2019_Nov_29_1637;iat_vr;59.91773295053016;
2;SCHLIMM;negativ;q;1;1;11;0;q;1;0.6473889000044437;002;ASLK98;2019_Nov_29_1637;iat_vr;59.91773295053016;
2;POSITIV;positiv;p;1;2;12;8;p;1;0.5954402999923332;002;ASLK98;2019_Nov_29_1637;iat_vr;59.91773295053016;
2;SCHLECHT;negativ;q;1;3;13;1;q;1;0.6600020999903791;002;ASLK98;2019_Nov_29_1637;iat_vr;59.91773295053016;
2;HERVORRAGEND;positiv;p;1;4;14;7;p;1;0.6841500000009546;002;ASLK98;2019_Nov_29_1637;iat_vr;59.91773295053016;
2;SCHWACH;negativ;q;1;5;15;4;q;1;0.5302794999879552;002;ASLK98;2019_Nov_29_1637;iat_vr;59.91773295053016;
2;GUT;positiv;p;1;6;16;9;p;1;0.6349196999944979;002;ASLK98;2019_Nov_29_1637;iat_vr;59.91773295053016;
2;NEGATIV;negativ;q;1;7;17;2;q;1;0.5807095000054687;002;ASLK98;2019_Nov_29_1637;iat_vr;59.91773295053016;
2;SCHÄDLICH;negativ;q;1;8;18;3;q;1;0.5801816999883158;002;ASLK98;2019_Nov_29_1637;iat_vr;59.91773295053016;
2;AUSGEZEICHNET;positiv;p;1;9;19;5;p;1;0.6256448000058299;002;ASLK98;2019_Nov_29_1637;iat_vr;59.91773295053016;
;;;;;;;;;;;002;ASLK98;2019_Nov_29_1637;iat_vr;59.91773295053016;
3;SCHWACH;negativ;q;0;0;0;4;q;1;0.797649400003138;002;ASLK98;2019_Nov_29_1637;iat_vr;59.91773295053016;
3;LAMPE;Gemacht;p;0;1;1;19;p;1;0.5822612999909325;002;ASLK98;2019_Nov_29_1637;iat_vr;59.91773295053016;
3;NEGATIV;negativ;q;0;2;2;2;q;1;0.5243182999984128;002;ASLK98;2019_Nov_29_1637;iat_vr;59.91773295053016;
3;SCHLIMM;negativ;q;0;3;3;0;q;1;0.582816099995398;002;ASLK98;2019_Nov_29_1637;iat_vr;59.91773295053016;
3;GUT;positiv;p;0;4;4;9;p;1;0.5505705000105081;002;ASLK98;2019_Nov_29_1637;iat_vr;59.91773295053016;
3;STEIN;Natur;q;0;5;5;14;q;1;0.6862963999883505;002;ASLK98;2019_Nov_29_1637;iat_vr;59.91773295053016;
3;EINWANDFREI;positiv;p;0;6;6;6;p;1;1.6780828000046313;002;ASLK98;2019_Nov_29_1637;iat_vr;59.91773295053016;
3;POSITIV;positiv;p;0;7;7;8;p;1;0.6500979999982519;002;ASLK98;2019_Nov_29_1637;iat_vr;59.91773295053016;
3;BAUM;Natur;q;0;8;8;10;q;1;0.6680582999979379;002;ASLK98;2019_Nov_29_1637;iat_vr;59.91773295053016;
3;AUSGEZEICHNET;positiv;p;0;9;9;5;p;1;1.0183284000086132;002;ASLK98;2019_Nov_29_1637;iat_vr;59.91773295053016;
3;TIER;Natur;q;0;10;10;13;q;1;0.5681840000033844;002;ASLK98;2019_Nov_29_1637;iat_vr;59.91773295053016;
3;WASSER;Natur;q;0;11;11;11;q;1;0.6478726000059396;002;ASLK98;2019_Nov_29_1637;iat_vr;59.91773295053016;
3;HERVORRAGEND;positiv;p;0;12;12;7;p;1;0.6103320999973221;002;ASLK98;2019_Nov_29_1637;iat_vr;59.91773295053016;
3;GEBÄUDE;Gemacht;p;0;13;13;15;p;1;0.5480824999976903;002;ASLK98;2019_Nov_29_1637;iat_vr;59.91773295053016;
3;COMPUTER;Gemacht;p;0;14;14;18;p;1;0.5293608999927528;002;ASLK98;2019_Nov_29_1637;iat_vr;59.91773295053016;
3;STADT;Gemacht;p;0;15;15;16;p;1;1.1147059000068111;002;ASLK98;2019_Nov_29_1637;iat_vr;59.91773295053016;
3;SCHLECHT;negativ;q;0;16;16;1;q;1;0.5283370999968611;002;ASLK98;2019_Nov_29_1637;iat_vr;59.91773295053016;
3;SCHÄDLICH;negativ;q;0;17;17;3;q;1;0.5639223999896785;002;ASLK98;2019_Nov_29_1637;iat_vr;59.91773295053016;
3;KLEIDER;Gemacht;p;0;18;18;17;p;1;0.5325942999916151;002;ASLK98;2019_Nov_29_1637;iat_vr;59.91773295053016;
3;BLUME;Natur;q;0;19;19;12;q;1;0.6336382999870693;002;ASLK98;2019_Nov_29_1637;iat_vr;59.91773295053016;
;;;;;;;;;;;002;ASLK98;2019_Nov_29_1637;iat_vr;59.91773295053016;
4;HERVORRAGEND;positiv;p;0;0;0;7;p;1;0.8795786999980919;002;ASLK98;2019_Nov_29_1637;iat_vr;59.91773295053016;
4;COMPUTER;Gemacht;p;0;1;1;18;p;1;0.5815140000049723;002;ASLK98;2019_Nov_29_1637;iat_vr;59.91773295053016;
4;WASSER;Natur;q;0;2;2;11;q;1;0.5973049000022002;002;ASLK98;2019_Nov_29_1637;iat_vr;59.91773295053016;
4;STEIN;Natur;q;0;3;3;14;q;1;0.5637646999966819;002;ASLK98;2019_Nov_29_1637;iat_vr;59.91773295053016;
4;SCHLIMM;negativ;q;0;4;4;0;q;1;0.5161719999887282;002;ASLK98;2019_Nov_29_1637;iat_vr;59.91773295053016;
4;SCHLECHT;negativ;q;0;5;5;1;q;1;0.49567910000041593;002;ASLK98;2019_Nov_29_1637;iat_vr;59.91773295053016;
4;KLEIDER;Gemacht;p;0;6;6;17;p;1;0.7146025999973062;002;ASLK98;2019_Nov_29_1637;iat_vr;59.91773295053016;
4;GEBÄUDE;Gemacht;p;0;7;7;15;p;1;0.6139148999936879;002;ASLK98;2019_Nov_29_1637;iat_vr;59.91773295053016;
4;BLUME;Natur;q;0;8;8;12;q;1;0.531403599990881;002;ASLK98;2019_Nov_29_1637;iat_vr;59.91773295053016;
4;POSITIV;positiv;p;0;9;9;8;q;0;0.7147678000037558;002;ASLK98;2019_Nov_29_1637;iat_vr;59.91773295053016;
4;TIER;Natur;q;0;10;10;13;p;0;0.44750009999552276;002;ASLK98;2019_Nov_29_1637;iat_vr;59.91773295053016;
4;SCHÄDLICH;negativ;q;0;11;11;3;q;1;1.3468796999950428;002;ASLK98;2019_Nov_29_1637;iat_vr;59.91773295053016;
4;STADT;Gemacht;p;0;12;12;16;p;1;0.6351279999944381;002;ASLK98;2019_Nov_29_1637;iat_vr;59.91773295053016;
4;NEGATIV;negativ;q;0;13;13;2;q;1;0.6949214999913238;002;ASLK98;2019_Nov_29_1637;iat_vr;59.91773295053016;
4;LAMPE;Gemacht;p;0;14;14;19;p;1;0.6802027000085218;002;ASLK98;2019_Nov_29_1637;iat_vr;59.91773295053016;
4;EINWANDFREI;positiv;p;0;15;15;6;p;1;0.7088233999966178;002;ASLK98;2019_Nov_29_1637;iat_vr;59.91773295053016;
4;AUSGEZEICHNET;positiv;p;0;16;16;5;p;1;0.8103163000050699;002;ASLK98;2019_Nov_29_1637;iat_vr;59.91773295053016;
4;SCHWACH;negativ;q;0;17;17;4;q;1;0.7632273000053829;002;ASLK98;2019_Nov_29_1637;iat_vr;59.91773295053016;
4;BAUM;Natur;q;0;18;18;10;q;1;0.7135827000020072;002;ASLK98;2019_Nov_29_1637;iat_vr;59.91773295053016;
4;GUT;positiv;p;0;19;19;9;p;1;0.6143779999983963;002;ASLK98;2019_Nov_29_1637;iat_vr;59.91773295053016;
4;EINWANDFREI;positiv;p;1;0;20;6;p;1;0.6968177999951877;002;ASLK98;2019_Nov_29_1637;iat_vr;59.91773295053016;
4;STEIN;Natur;q;1;1;21;14;q;1;0.7654340000008233;002;ASLK98;2019_Nov_29_1637;iat_vr;59.91773295053016;
4;SCHLECHT;negativ;q;1;2;22;1;q;1;0.6690109000046505;002;ASLK98;2019_Nov_29_1637;iat_vr;59.91773295053016;
4;SCHLIMM;negativ;q;1;3;23;0;q;1;0.7812761999957729;002;ASLK98;2019_Nov_29_1637;iat_vr;59.91773295053016;
4;SCHÄDLICH;negativ;q;1;4;24;3;q;1;0.6786267999996198;002;ASLK98;2019_Nov_29_1637;iat_vr;59.91773295053016;
4;GEBÄUDE;Gemacht;p;1;5;25;15;p;1;0.7511220000014873;002;ASLK98;2019_Nov_29_1637;iat_vr;59.91773295053016;
4;GUT;positiv;p;1;6;26;9;p;1;0.6487712000089232;002;ASLK98;2019_Nov_29_1637;iat_vr;59.91773295053016;
4;KLEIDER;Gemacht;p;1;7;27;17;p;1;0.6689598999946611;002;ASLK98;2019_Nov_29_1637;iat_vr;59.91773295053016;
4;COMPUTER;Gemacht;p;1;8;28;18;p;1;0.6436522000003606;002;ASLK98;2019_Nov_29_1637;iat_vr;59.91773295053016;
4;LAMPE;Gemacht;p;1;9;29;19;p;1;1.3337846999929752;002;ASLK98;2019_Nov_29_1637;iat_vr;59.91773295053016;
4;AUSGEZEICHNET;positiv;p;1;10;30;5;p;1;0.6272554000024684;002;ASLK98;2019_Nov_29_1637;iat_vr;59.91773295053016;
4;POSITIV;positiv;p;1;11;31;8;p;1;0.8291709999903105;002;ASLK98;2019_Nov_29_1637;iat_vr;59.91773295053016;
4;NEGATIV;negativ;q;1;12;32;2;q;1;0.6665280000015628;002;ASLK98;2019_Nov_29_1637;iat_vr;59.91773295053016;
4;BLUME;Natur;q;1;13;33;12;q;1;0.8623151000065263;002;ASLK98;2019_Nov_29_1637;iat_vr;59.91773295053016;
4;HERVORRAGEND;positiv;p;1;14;34;7;p;1;0.9683203000022331;002;ASLK98;2019_Nov_29_1637;iat_vr;59.91773295053016;
4;BAUM;Natur;q;1;15;35;10;q;1;1.0353068999975221;002;ASLK98;2019_Nov_29_1637;iat_vr;59.91773295053016;
4;SCHWACH;negativ;q;1;16;36;4;q;1;0.6791567000036594;002;ASLK98;2019_Nov_29_1637;iat_vr;59.91773295053016;
4;TIER;Natur;q;1;17;37;13;q;1;0.7006044000008842;002;ASLK98;2019_Nov_29_1637;iat_vr;59.91773295053016;
4;WASSER;Natur;q;1;18;38;11;q;1;0.6839215999934822;002;ASLK98;2019_Nov_29_1637;iat_vr;59.91773295053016;
4;STADT;Gemacht;p;1;19;39;16;p;1;0.6670035999995889;002;ASLK98;2019_Nov_29_1637;iat_vr;59.91773295053016;
;;;;;;;;;;;002;ASLK98;2019_Nov_29_1637;iat_vr;59.91773295053016;
5;STEIN;Natur;p;0;0;0;4;p;1;1.0038900999934413;002;ASLK98;2019_Nov_29_1637;iat_vr;59.91773295053016;
5;COMPUTER;Gemacht;q;0;1;1;8;q;1;0.4641129999945406;002;ASLK98;2019_Nov_29_1637;iat_vr;59.91773295053016;
5;BLUME;Natur;p;0;2;2;2;p;1;1.115385700002662;002;ASLK98;2019_Nov_29_1637;iat_vr;59.91773295053016;
5;GEBÄUDE;Gemacht;q;0;3;3;5;q;1;0.5981251999910455;002;ASLK98;2019_Nov_29_1637;iat_vr;59.91773295053016;
5;LAMPE;Gemacht;q;0;4;4;9;p;0;1.0133952999894973;002;ASLK98;2019_Nov_29_1637;iat_vr;59.91773295053016;
5;STADT;Gemacht;q;0;5;5;6;q;1;1.0483279000036418;002;ASLK98;2019_Nov_29_1637;iat_vr;59.91773295053016;
5;BAUM;Natur;p;0;6;6;0;p;1;0.7685274999967078;002;ASLK98;2019_Nov_29_1637;iat_vr;59.91773295053016;
5;KLEIDER;Gemacht;q;0;7;7;7;q;1;1.5127112999907695;002;ASLK98;2019_Nov_29_1637;iat_vr;59.91773295053016;
5;TIER;Natur;p;0;8;8;3;p;1;0.9021037999918917;002;ASLK98;2019_Nov_29_1637;iat_vr;59.91773295053016;
5;WASSER;Natur;p;0;9;9;1;p;1;0.9182616999896709;002;ASLK98;2019_Nov_29_1637;iat_vr;59.91773295053016;
5;LAMPE;Gemacht;q;1;0;10;9;q;1;0.8017356999916956;002;ASLK98;2019_Nov_29_1637;iat_vr;59.91773295053016;
5;STEIN;Natur;p;1;1;11;4;p;1;1.0149113000079524;002;ASLK98;2019_Nov_29_1637;iat_vr;59.91773295053016;
5;GEBÄUDE;Gemacht;q;1;2;12;5;q;1;0.6356503999995766;002;ASLK98;2019_Nov_29_1637;iat_vr;59.91773295053016;
5;STADT;Gemacht;q;1;3;13;6;q;1;0.7120931000099517;002;ASLK98;2019_Nov_29_1637;iat_vr;59.91773295053016;
5;KLEIDER;Gemacht;q;1;4;14;7;q;1;1.102374599999166;002;ASLK98;2019_Nov_29_1637;iat_vr;59.91773295053016;
5;BLUME;Natur;p;1;5;15;2;p;1;0.7979973999899812;002;ASLK98;2019_Nov_29_1637;iat_vr;59.91773295053016;
5;WASSER;Natur;p;1;6;16;1;p;1;0.5308513999916613;002;ASLK98;2019_Nov_29_1637;iat_vr;59.91773295053016;
5;COMPUTER;Gemacht;q;1;7;17;8;q;1;0.5969825999927707;002;ASLK98;2019_Nov_29_1637;iat_vr;59.91773295053016;
5;TIER;Natur;p;1;8;18;3;p;1;1.1168743999878643;002;ASLK98;2019_Nov_29_1637;iat_vr;59.91773295053016;
5;BAUM;Natur;p;1;9;19;0;p;1;0.8297164999967208;002;ASLK98;2019_Nov_29_1637;iat_vr;59.91773295053016;
;;;;;;;;;;;002;ASLK98;2019_Nov_29_1637;iat_vr;59.91773295053016;
6;HERVORRAGEND;positiv;p;0;0;0;17;p;1;1.7819846000056714;002;ASLK98;2019_Nov_29_1637;iat_vr;59.91773295053016;
6;BAUM;Natur;p;0;1;1;0;p;1;0.7188979000056861;002;ASLK98;2019_Nov_29_1637;iat_vr;59.91773295053016;
6;SCHLECHT;negativ;q;0;2;2;11;q;1;0.7475164999923436;002;ASLK98;2019_Nov_29_1637;iat_vr;59.91773295053016;
6;GUT;positiv;p;0;3;3;19;p;1;0.6336804999882588;002;ASLK98;2019_Nov_29_1637;iat_vr;59.91773295053016;
6;NEGATIV;negativ;q;0;4;4;12;q;1;1.2157680000091204;002;ASLK98;2019_Nov_29_1637;iat_vr;59.91773295053016;
6;WASSER;Natur;p;0;5;5;1;p;1;0.7143080999958329;002;ASLK98;2019_Nov_29_1637;iat_vr;59.91773295053016;
6;STEIN;Natur;p;0;6;6;4;p;1;0.6635583000024781;002;ASLK98;2019_Nov_29_1637;iat_vr;59.91773295053016;
6;SCHWACH;negativ;q;0;7;7;14;q;1;0.9004322000109823;002;ASLK98;2019_Nov_29_1637;iat_vr;59.91773295053016;
6;SCHÄDLICH;negativ;q;0;8;8;13;q;1;0.6186154000024544;002;ASLK98;2019_Nov_29_1637;iat_vr;59.91773295053016;
6;SCHLIMM;negativ;q;0;9;9;10;q;1;0.6928314999968279;002;ASLK98;2019_Nov_29_1637;iat_vr;59.91773295053016;
6;POSITIV;positiv;p;0;10;10;18;p;1;0.5967832000023918;002;ASLK98;2019_Nov_29_1637;iat_vr;59.91773295053016;
6;AUSGEZEICHNET;positiv;p;0;11;11;15;p;1;0.5342796000040835;002;ASLK98;2019_Nov_29_1637;iat_vr;59.91773295053016;
6;COMPUTER;Gemacht;q;0;12;12;8;q;1;0.6850009999907343;002;ASLK98;2019_Nov_29_1637;iat_vr;59.91773295053016;
6;LAMPE;Gemacht;q;0;13;13;9;q;1;0.6474277999950573;002;ASLK98;2019_Nov_29_1637;iat_vr;59.91773295053016;
6;KLEIDER;Gemacht;q;0;14;14;7;q;1;0.5951899999927264;002;ASLK98;2019_Nov_29_1637;iat_vr;59.91773295053016;
6;EINWANDFREI;positiv;p;0;15;15;16;p;1;1.0115459999942686;002;ASLK98;2019_Nov_29_1637;iat_vr;59.91773295053016;
6;GEBÄUDE;Gemacht;q;0;16;16;5;q;1;0.662219300007564;002;ASLK98;2019_Nov_29_1637;iat_vr;59.91773295053016;
6;STADT;Gemacht;q;0;17;17;6;q;1;0.8335751999984495;002;ASLK98;2019_Nov_29_1637;iat_vr;59.91773295053016;
6;BLUME;Natur;p;0;18;18;2;p;1;0.6002244999981485;002;ASLK98;2019_Nov_29_1637;iat_vr;59.91773295053016;
6;TIER;Natur;p;0;19;19;3;p;1;0.7522617000067839;002;ASLK98;2019_Nov_29_1637;iat_vr;59.91773295053016;
;;;;;;;;;;;002;ASLK98;2019_Nov_29_1637;iat_vr;59.91773295053016;
7;GEBÄUDE;Gemacht;q;0;0;0;5;q;1;0.9003193999960786;002;ASLK98;2019_Nov_29_1637;iat_vr;59.91773295053016;
7;WASSER;Natur;p;0;1;1;1;p;1;0.6662894999899436;002;ASLK98;2019_Nov_29_1637;iat_vr;59.91773295053016;
7;POSITIV;positiv;p;0;2;2;18;p;1;1.1332086000038544;002;ASLK98;2019_Nov_29_1637;iat_vr;59.91773295053016;
7;EINWANDFREI;positiv;p;0;3;3;16;p;1;0.6195603999949526;002;ASLK98;2019_Nov_29_1637;iat_vr;59.91773295053016;
7;SCHLIMM;negativ;q;0;4;4;10;q;1;0.6503223999898182;002;ASLK98;2019_Nov_29_1637;iat_vr;59.91773295053016;
7;HERVORRAGEND;positiv;p;0;5;5;17;p;1;0.6782487000018591;002;ASLK98;2019_Nov_29_1637;iat_vr;59.91773295053016;
7;TIER;Natur;p;0;6;6;3;p;1;1.0646359999955166;002;ASLK98;2019_Nov_29_1637;iat_vr;59.91773295053016;
7;LAMPE;Gemacht;q;0;7;7;9;q;1;0.6812455999897793;002;ASLK98;2019_Nov_29_1637;iat_vr;59.91773295053016;
7;BLUME;Natur;p;0;8;8;2;p;1;0.9485149000101956;002;ASLK98;2019_Nov_29_1637;iat_vr;59.91773295053016;
7;GUT;positiv;p;0;9;9;19;p;1;0.9991134000010788;002;ASLK98;2019_Nov_29_1637;iat_vr;59.91773295053016;
7;NEGATIV;negativ;q;0;10;10;12;q;1;0.6639048999932129;002;ASLK98;2019_Nov_29_1637;iat_vr;59.91773295053016;
7;COMPUTER;Gemacht;q;0;11;11;8;q;1;0.8839164999953937;002;ASLK98;2019_Nov_29_1637;iat_vr;59.91773295053016;
7;STEIN;Natur;p;0;12;12;4;p;1;0.699040799998329;002;ASLK98;2019_Nov_29_1637;iat_vr;59.91773295053016;
7;STADT;Gemacht;q;0;13;13;6;q;1;0.8812249000038719;002;ASLK98;2019_Nov_29_1637;iat_vr;59.91773295053016;
7;BAUM;Natur;p;0;14;14;0;p;1;0.984491800001706;002;ASLK98;2019_Nov_29_1637;iat_vr;59.91773295053016;
7;SCHLECHT;negativ;q;0;15;15;11;q;1;0.9617953999986639;002;ASLK98;2019_Nov_29_1637;iat_vr;59.91773295053016;
7;SCHÄDLICH;negativ;q;0;16;16;13;q;1;0.7195700000011129;002;ASLK98;2019_Nov_29_1637;iat_vr;59.91773295053016;
7;KLEIDER;Gemacht;q;0;17;17;7;q;1;0.9023544999945443;002;ASLK98;2019_Nov_29_1637;iat_vr;59.91773295053016;
7;AUSGEZEICHNET;positiv;p;0;18;18;15;p;1;0.935159599990584;002;ASLK98;2019_Nov_29_1637;iat_vr;59.91773295053016;
7;SCHWACH;negativ;q;0;19;19;14;q;1;0.7024289000110002;002;ASLK98;2019_Nov_29_1637;iat_vr;59.91773295053016;
7;COMPUTER;Gemacht;q;1;0;20;8;q;1;1.1637842999916757;002;ASLK98;2019_Nov_29_1637;iat_vr;59.91773295053016;
7;WASSER;Natur;p;1;1;21;1;p;1;1.5184317999955965;002;ASLK98;2019_Nov_29_1637;iat_vr;59.91773295053016;
7;EINWANDFREI;positiv;p;1;2;22;16;p;1;0.9652016999898478;002;ASLK98;2019_Nov_29_1637;iat_vr;59.91773295053016;
7;STEIN;Natur;p;1;3;23;4;q;0;2.132999199995538;002;ASLK98;2019_Nov_29_1637;iat_vr;59.91773295053016;
7;STADT;Gemacht;q;1;4;24;6;q;1;0.8778495000005933;002;ASLK98;2019_Nov_29_1637;iat_vr;59.91773295053016;
7;SCHWACH;negativ;q;1;5;25;14;q;1;0.843920800005435;002;ASLK98;2019_Nov_29_1637;iat_vr;59.91773295053016;
7;SCHLIMM;negativ;q;1;6;26;10;q;1;0.8809401000034995;002;ASLK98;2019_Nov_29_1637;iat_vr;59.91773295053016;
7;LAMPE;Gemacht;q;1;7;27;9;q;1;0.8150526999961585;002;ASLK98;2019_Nov_29_1637;iat_vr;59.91773295053016;
7;GUT;positiv;p;1;8;28;19;p;1;0.8497116999933496;002;ASLK98;2019_Nov_29_1637;iat_vr;59.91773295053016;
7;NEGATIV;negativ;q;1;9;29;12;q;1;0.6497665999922901;002;ASLK98;2019_Nov_29_1637;iat_vr;59.91773295053016;
7;SCHLECHT;negativ;q;1;10;30;11;q;1;0.7968993999966187;002;ASLK98;2019_Nov_29_1637;iat_vr;59.91773295053016;
7;HERVORRAGEND;positiv;p;1;11;31;17;p;1;0.8628175000048941;002;ASLK98;2019_Nov_29_1637;iat_vr;59.91773295053016;
7;AUSGEZEICHNET;positiv;p;1;12;32;15;p;1;0.8270285000035074;002;ASLK98;2019_Nov_29_1637;iat_vr;59.91773295053016;
7;POSITIV;positiv;p;1;13;33;18;p;1;0.8324162999924738;002;ASLK98;2019_Nov_29_1637;iat_vr;59.91773295053016;
7;BAUM;Natur;p;1;14;34;0;q;0;0.8500122999976156;002;ASLK98;2019_Nov_29_1637;iat_vr;59.91773295053016;
7;TIER;Natur;p;1;15;35;3;p;1;1.218302199995378;002;ASLK98;2019_Nov_29_1637;iat_vr;59.91773295053016;
7;KLEIDER;Gemacht;q;1;16;36;7;q;1;0.7158075999905122;002;ASLK98;2019_Nov_29_1637;iat_vr;59.91773295053016;
7;GEBÄUDE;Gemacht;q;1;17;37;5;q;1;0.9642585999972653;002;ASLK98;2019_Nov_29_1637;iat_vr;59.91773295053016;
7;BLUME;Natur;p;1;18;38;2;p;1;1.098129499994684;002;ASLK98;2019_Nov_29_1637;iat_vr;59.91773295053016;
7;SCHÄDLICH;negativ;q;1;19;39;13;q;1;0.6452662000083365;002;ASLK98;2019_Nov_29_1637;iat_vr;59.91773295053016;
;;;;;;;;;;;002;ASLK98;2019_Nov_29_1637;iat_vr;59.91773295053016;
