Block;Word;Category;CorrResp;trials.thisRepN;trials.thisTrialN;trials.thisN;trials.thisIndex;key_resp_2.keys;key_resp_2.corr;key_resp_2.rt;session;participant;date;expName;frameRate;
1;TIER;Natur;q;0;0;0;3;q;1;2.0783513999995193;002;ASMS67;2019_Nov_28_1016;iat_vr;60.78306826846739;
1;BAUM;Natur;q;0;1;1;0;q;1;0.9042367000001832;002;ASMS67;2019_Nov_28_1016;iat_vr;60.78306826846739;
1;BLUME;Natur;q;0;2;2;2;q;1;1.1486133999997037;002;ASMS67;2019_Nov_28_1016;iat_vr;60.78306826846739;
1;LAMPE;Gemacht;p;0;3;3;9;p;1;0.646662500000275;002;ASMS67;2019_Nov_28_1016;iat_vr;60.78306826846739;
1;STEIN;Natur;q;0;4;4;4;q;1;0.7532357999998567;002;ASMS67;2019_Nov_28_1016;iat_vr;60.78306826846739;
1;KLEIDER;Gemacht;p;0;5;5;7;p;1;0.5961467999995875;002;ASMS67;2019_Nov_28_1016;iat_vr;60.78306826846739;
1;STADT;Gemacht;p;0;6;6;6;p;1;0.9645203000000038;002;ASMS67;2019_Nov_28_1016;iat_vr;60.78306826846739;
1;COMPUTER;Gemacht;p;0;7;7;8;p;1;0.6890459000005649;002;ASMS67;2019_Nov_28_1016;iat_vr;60.78306826846739;
1;GEBÄUDE;Gemacht;p;0;8;8;5;p;1;0.6770384999999806;002;ASMS67;2019_Nov_28_1016;iat_vr;60.78306826846739;
1;WASSER;Natur;q;0;9;9;1;q;1;0.6834148999996614;002;ASMS67;2019_Nov_28_1016;iat_vr;60.78306826846739;
1;STEIN;Natur;q;1;0;10;4;q;1;0.6679639999993014;002;ASMS67;2019_Nov_28_1016;iat_vr;60.78306826846739;
1;WASSER;Natur;q;1;1;11;1;q;1;0.6147416000003432;002;ASMS67;2019_Nov_28_1016;iat_vr;60.78306826846739;
1;TIER;Natur;q;1;2;12;3;q;1;0.6299713999997039;002;ASMS67;2019_Nov_28_1016;iat_vr;60.78306826846739;
1;KLEIDER;Gemacht;p;1;3;13;7;p;1;0.7953247000004922;002;ASMS67;2019_Nov_28_1016;iat_vr;60.78306826846739;
1;STADT;Gemacht;p;1;4;14;6;p;1;0.6948210000000472;002;ASMS67;2019_Nov_28_1016;iat_vr;60.78306826846739;
1;GEBÄUDE;Gemacht;p;1;5;15;5;p;1;0.7175607999997737;002;ASMS67;2019_Nov_28_1016;iat_vr;60.78306826846739;
1;COMPUTER;Gemacht;p;1;6;16;8;p;1;0.7351384000003236;002;ASMS67;2019_Nov_28_1016;iat_vr;60.78306826846739;
1;BAUM;Natur;q;1;7;17;0;q;1;0.7332874000003358;002;ASMS67;2019_Nov_28_1016;iat_vr;60.78306826846739;
1;LAMPE;Gemacht;p;1;8;18;9;p;1;0.6466677999997046;002;ASMS67;2019_Nov_28_1016;iat_vr;60.78306826846739;
1;BLUME;Natur;q;1;9;19;2;q;1;0.8986493000002156;002;ASMS67;2019_Nov_28_1016;iat_vr;60.78306826846739;
;;;;;;;;;;;002;ASMS67;2019_Nov_28_1016;iat_vr;60.78306826846739;
2;AUSGEZEICHNET;positiv;p;0;0;0;5;p;1;1.3752400000003036;002;ASMS67;2019_Nov_28_1016;iat_vr;60.78306826846739;
2;HERVORRAGEND;positiv;p;0;1;1;7;p;1;0.573884000000362;002;ASMS67;2019_Nov_28_1016;iat_vr;60.78306826846739;
2;NEGATIV;negativ;q;0;2;2;2;q;1;0.861464600000545;002;ASMS67;2019_Nov_28_1016;iat_vr;60.78306826846739;
2;SCHWACH;negativ;q;0;3;3;4;q;1;0.6811274000001504;002;ASMS67;2019_Nov_28_1016;iat_vr;60.78306826846739;
2;GUT;positiv;p;0;4;4;9;p;1;0.6317595000000438;002;ASMS67;2019_Nov_28_1016;iat_vr;60.78306826846739;
2;SCHLECHT;negativ;q;0;5;5;1;q;1;1.6298518000003241;002;ASMS67;2019_Nov_28_1016;iat_vr;60.78306826846739;
2;EINWANDFREI;positiv;p;0;6;6;6;p;1;0.6163640000004307;002;ASMS67;2019_Nov_28_1016;iat_vr;60.78306826846739;
2;POSITIV;positiv;p;0;7;7;8;p;1;0.6186054999998305;002;ASMS67;2019_Nov_28_1016;iat_vr;60.78306826846739;
2;SCHLIMM;negativ;q;0;8;8;0;q;1;0.679113099999995;002;ASMS67;2019_Nov_28_1016;iat_vr;60.78306826846739;
2;SCHÄDLICH;negativ;q;0;9;9;3;q;1;0.5792658000000301;002;ASMS67;2019_Nov_28_1016;iat_vr;60.78306826846739;
2;SCHÄDLICH;negativ;q;1;0;10;3;q;1;0.5852602000004481;002;ASMS67;2019_Nov_28_1016;iat_vr;60.78306826846739;
2;SCHLECHT;negativ;q;1;1;11;1;q;1;0.6814930999998978;002;ASMS67;2019_Nov_28_1016;iat_vr;60.78306826846739;
2;SCHLIMM;negativ;q;1;2;12;0;q;1;0.5797255999996196;002;ASMS67;2019_Nov_28_1016;iat_vr;60.78306826846739;
2;NEGATIV;negativ;q;1;3;13;2;p;0;0.5171243999993749;002;ASMS67;2019_Nov_28_1016;iat_vr;60.78306826846739;
2;EINWANDFREI;positiv;p;1;4;14;6;p;1;0.9509336000000985;002;ASMS67;2019_Nov_28_1016;iat_vr;60.78306826846739;
2;AUSGEZEICHNET;positiv;p;1;5;15;5;p;1;0.8494898999997531;002;ASMS67;2019_Nov_28_1016;iat_vr;60.78306826846739;
2;SCHWACH;negativ;q;1;6;16;4;q;1;1.2842583000001468;002;ASMS67;2019_Nov_28_1016;iat_vr;60.78306826846739;
2;GUT;positiv;p;1;7;17;9;p;1;0.6834163000003173;002;ASMS67;2019_Nov_28_1016;iat_vr;60.78306826846739;
2;POSITIV;positiv;p;1;8;18;8;p;1;0.7843535000001793;002;ASMS67;2019_Nov_28_1016;iat_vr;60.78306826846739;
2;HERVORRAGEND;positiv;p;1;9;19;7;p;1;0.7916846999996778;002;ASMS67;2019_Nov_28_1016;iat_vr;60.78306826846739;
;;;;;;;;;;;002;ASMS67;2019_Nov_28_1016;iat_vr;60.78306826846739;
3;STEIN;Natur;q;0;0;0;14;q;1;2.6497537999994165;002;ASMS67;2019_Nov_28_1016;iat_vr;60.78306826846739;
3;SCHLIMM;negativ;q;0;1;1;0;q;1;0.7137025000001813;002;ASMS67;2019_Nov_28_1016;iat_vr;60.78306826846739;
3;SCHÄDLICH;negativ;q;0;2;2;3;q;1;0.7305435000007492;002;ASMS67;2019_Nov_28_1016;iat_vr;60.78306826846739;
3;BLUME;Natur;q;0;3;3;12;q;1;0.895358199999464;002;ASMS67;2019_Nov_28_1016;iat_vr;60.78306826846739;
3;POSITIV;positiv;p;0;4;4;8;p;1;1.3138665000005858;002;ASMS67;2019_Nov_28_1016;iat_vr;60.78306826846739;
3;GUT;positiv;p;0;5;5;9;p;1;1.1988291999996363;002;ASMS67;2019_Nov_28_1016;iat_vr;60.78306826846739;
3;LAMPE;Gemacht;p;0;6;6;19;p;1;0.7141491000002134;002;ASMS67;2019_Nov_28_1016;iat_vr;60.78306826846739;
3;SCHWACH;negativ;q;0;7;7;4;q;1;1.047509899999568;002;ASMS67;2019_Nov_28_1016;iat_vr;60.78306826846739;
3;HERVORRAGEND;positiv;p;0;8;8;7;p;1;0.9945090000001073;002;ASMS67;2019_Nov_28_1016;iat_vr;60.78306826846739;
3;AUSGEZEICHNET;positiv;p;0;9;9;5;p;1;0.8668697000002794;002;ASMS67;2019_Nov_28_1016;iat_vr;60.78306826846739;
3;SCHLECHT;negativ;q;0;10;10;1;q;1;0.800546000000395;002;ASMS67;2019_Nov_28_1016;iat_vr;60.78306826846739;
3;WASSER;Natur;q;0;11;11;11;q;1;1.1852441000000908;002;ASMS67;2019_Nov_28_1016;iat_vr;60.78306826846739;
3;EINWANDFREI;positiv;p;0;12;12;6;p;1;1.1682677999997395;002;ASMS67;2019_Nov_28_1016;iat_vr;60.78306826846739;
3;NEGATIV;negativ;q;0;13;13;2;q;1;0.8172122999994826;002;ASMS67;2019_Nov_28_1016;iat_vr;60.78306826846739;
3;STADT;Gemacht;p;0;14;14;16;p;1;0.6839854999998352;002;ASMS67;2019_Nov_28_1016;iat_vr;60.78306826846739;
3;KLEIDER;Gemacht;p;0;15;15;17;p;1;0.6670672999998715;002;ASMS67;2019_Nov_28_1016;iat_vr;60.78306826846739;
3;TIER;Natur;q;0;16;16;13;q;1;0.7188265999993746;002;ASMS67;2019_Nov_28_1016;iat_vr;60.78306826846739;
3;GEBÄUDE;Gemacht;p;0;17;17;15;p;1;0.830354100000477;002;ASMS67;2019_Nov_28_1016;iat_vr;60.78306826846739;
3;COMPUTER;Gemacht;p;0;18;18;18;q;0;0.935446100000263;002;ASMS67;2019_Nov_28_1016;iat_vr;60.78306826846739;
3;BAUM;Natur;q;0;19;19;10;q;1;1.0019297999997434;002;ASMS67;2019_Nov_28_1016;iat_vr;60.78306826846739;
;;;;;;;;;;;002;ASMS67;2019_Nov_28_1016;iat_vr;60.78306826846739;
4;SCHWACH;negativ;q;0;0;0;4;q;1;3.2425742999994327;002;ASMS67;2019_Nov_28_1016;iat_vr;60.78306826846739;
4;POSITIV;positiv;p;0;1;1;8;p;1;1.5132111000002624;002;ASMS67;2019_Nov_28_1016;iat_vr;60.78306826846739;
4;AUSGEZEICHNET;positiv;p;0;2;2;5;p;1;0.7115877999995064;002;ASMS67;2019_Nov_28_1016;iat_vr;60.78306826846739;
4;STEIN;Natur;q;0;3;3;14;q;1;0.6953439999997499;002;ASMS67;2019_Nov_28_1016;iat_vr;60.78306826846739;
4;SCHLECHT;negativ;q;0;4;4;1;q;1;0.9285221000000092;002;ASMS67;2019_Nov_28_1016;iat_vr;60.78306826846739;
4;KLEIDER;Gemacht;p;0;5;5;17;p;1;0.6977155000004132;002;ASMS67;2019_Nov_28_1016;iat_vr;60.78306826846739;
4;HERVORRAGEND;positiv;p;0;6;6;7;p;1;0.7441460000000006;002;ASMS67;2019_Nov_28_1016;iat_vr;60.78306826846739;
4;EINWANDFREI;positiv;p;0;7;7;6;p;1;0.9799076999997851;002;ASMS67;2019_Nov_28_1016;iat_vr;60.78306826846739;
4;SCHLIMM;negativ;q;0;8;8;0;q;1;0.7132980999995198;002;ASMS67;2019_Nov_28_1016;iat_vr;60.78306826846739;
4;NEGATIV;negativ;q;0;9;9;2;q;1;0.7312060999993264;002;ASMS67;2019_Nov_28_1016;iat_vr;60.78306826846739;
4;TIER;Natur;q;0;10;10;13;q;1;0.7466617000000042;002;ASMS67;2019_Nov_28_1016;iat_vr;60.78306826846739;
4;COMPUTER;Gemacht;p;0;11;11;18;p;1;0.6635432000002766;002;ASMS67;2019_Nov_28_1016;iat_vr;60.78306826846739;
4;SCHÄDLICH;negativ;q;0;12;12;3;q;1;0.96866990000035;002;ASMS67;2019_Nov_28_1016;iat_vr;60.78306826846739;
4;BLUME;Natur;q;0;13;13;12;q;1;0.6826037999999244;002;ASMS67;2019_Nov_28_1016;iat_vr;60.78306826846739;
4;LAMPE;Gemacht;p;0;14;14;19;p;1;0.6837291000001642;002;ASMS67;2019_Nov_28_1016;iat_vr;60.78306826846739;
4;BAUM;Natur;q;0;15;15;10;q;1;0.7812395000000834;002;ASMS67;2019_Nov_28_1016;iat_vr;60.78306826846739;
4;GEBÄUDE;Gemacht;p;0;16;16;15;p;1;0.6850378999997702;002;ASMS67;2019_Nov_28_1016;iat_vr;60.78306826846739;
4;STADT;Gemacht;p;0;17;17;16;p;1;1.4020282999999836;002;ASMS67;2019_Nov_28_1016;iat_vr;60.78306826846739;
4;GUT;positiv;p;0;18;18;9;p;1;0.9984832999998616;002;ASMS67;2019_Nov_28_1016;iat_vr;60.78306826846739;
4;WASSER;Natur;q;0;19;19;11;q;1;0.7127181999994718;002;ASMS67;2019_Nov_28_1016;iat_vr;60.78306826846739;
4;HERVORRAGEND;positiv;p;1;0;20;7;p;1;0.7608713999998145;002;ASMS67;2019_Nov_28_1016;iat_vr;60.78306826846739;
4;SCHÄDLICH;negativ;q;1;1;21;3;q;1;1.3517194000005475;002;ASMS67;2019_Nov_28_1016;iat_vr;60.78306826846739;
4;STEIN;Natur;q;1;2;22;14;q;1;0.7636305999994875;002;ASMS67;2019_Nov_28_1016;iat_vr;60.78306826846739;
4;WASSER;Natur;q;1;3;23;11;q;1;0.6017914000003657;002;ASMS67;2019_Nov_28_1016;iat_vr;60.78306826846739;
4;EINWANDFREI;positiv;p;1;4;24;6;p;1;0.6760686999996324;002;ASMS67;2019_Nov_28_1016;iat_vr;60.78306826846739;
4;NEGATIV;negativ;q;1;5;25;2;q;1;0.8978679000001648;002;ASMS67;2019_Nov_28_1016;iat_vr;60.78306826846739;
4;TIER;Natur;q;1;6;26;13;q;1;0.7471507999998721;002;ASMS67;2019_Nov_28_1016;iat_vr;60.78306826846739;
4;STADT;Gemacht;p;1;7;27;16;p;1;0.6632585999996081;002;ASMS67;2019_Nov_28_1016;iat_vr;60.78306826846739;
4;GEBÄUDE;Gemacht;p;1;8;28;15;p;1;0.6281010000002425;002;ASMS67;2019_Nov_28_1016;iat_vr;60.78306826846739;
4;SCHLIMM;negativ;q;1;9;29;0;q;1;3.1868163999997705;002;ASMS67;2019_Nov_28_1016;iat_vr;60.78306826846739;
4;AUSGEZEICHNET;positiv;p;1;10;30;5;p;1;0.73480440000003;002;ASMS67;2019_Nov_28_1016;iat_vr;60.78306826846739;
4;LAMPE;Gemacht;p;1;11;31;19;p;1;1.0178885999994236;002;ASMS67;2019_Nov_28_1016;iat_vr;60.78306826846739;
4;SCHWACH;negativ;q;1;12;32;4;q;1;0.8018136999999115;002;ASMS67;2019_Nov_28_1016;iat_vr;60.78306826846739;
4;KLEIDER;Gemacht;p;1;13;33;17;p;1;0.9525538000007145;002;ASMS67;2019_Nov_28_1016;iat_vr;60.78306826846739;
4;GUT;positiv;p;1;14;34;9;p;1;0.6851530999992974;002;ASMS67;2019_Nov_28_1016;iat_vr;60.78306826846739;
4;POSITIV;positiv;p;1;15;35;8;p;1;0.7304482999998072;002;ASMS67;2019_Nov_28_1016;iat_vr;60.78306826846739;
4;BAUM;Natur;q;1;16;36;10;q;1;0.7171142999995936;002;ASMS67;2019_Nov_28_1016;iat_vr;60.78306826846739;
4;BLUME;Natur;q;1;17;37;12;q;1;0.6013529000001654;002;ASMS67;2019_Nov_28_1016;iat_vr;60.78306826846739;
4;SCHLECHT;negativ;q;1;18;38;1;q;1;0.7163253999997323;002;ASMS67;2019_Nov_28_1016;iat_vr;60.78306826846739;
4;COMPUTER;Gemacht;p;1;19;39;18;p;1;0.6504248999999618;002;ASMS67;2019_Nov_28_1016;iat_vr;60.78306826846739;
;;;;;;;;;;;002;ASMS67;2019_Nov_28_1016;iat_vr;60.78306826846739;
5;BLUME;Natur;p;0;0;0;2;p;1;0.89401480000015;002;ASMS67;2019_Nov_28_1016;iat_vr;60.78306826846739;
5;GEBÄUDE;Gemacht;q;0;1;1;5;q;1;0.683361700000205;002;ASMS67;2019_Nov_28_1016;iat_vr;60.78306826846739;
5;TIER;Natur;p;0;2;2;3;p;1;0.5523371999997835;002;ASMS67;2019_Nov_28_1016;iat_vr;60.78306826846739;
5;BAUM;Natur;p;0;3;3;0;p;1;0.582242700000279;002;ASMS67;2019_Nov_28_1016;iat_vr;60.78306826846739;
5;COMPUTER;Gemacht;q;0;4;4;8;q;1;0.6317820000003849;002;ASMS67;2019_Nov_28_1016;iat_vr;60.78306826846739;
5;KLEIDER;Gemacht;q;0;5;5;7;q;1;0.9454045000002225;002;ASMS67;2019_Nov_28_1016;iat_vr;60.78306826846739;
5;STADT;Gemacht;q;0;6;6;6;q;1;0.7650639999992563;002;ASMS67;2019_Nov_28_1016;iat_vr;60.78306826846739;
5;LAMPE;Gemacht;q;0;7;7;9;q;1;0.6688732000002346;002;ASMS67;2019_Nov_28_1016;iat_vr;60.78306826846739;
5;STEIN;Natur;p;0;8;8;4;p;1;0.7982757999998285;002;ASMS67;2019_Nov_28_1016;iat_vr;60.78306826846739;
5;WASSER;Natur;p;0;9;9;1;p;1;0.4992302999999083;002;ASMS67;2019_Nov_28_1016;iat_vr;60.78306826846739;
5;LAMPE;Gemacht;q;1;0;10;9;q;1;0.8800683999998;002;ASMS67;2019_Nov_28_1016;iat_vr;60.78306826846739;
5;STADT;Gemacht;q;1;1;11;6;q;1;1.1983147999999346;002;ASMS67;2019_Nov_28_1016;iat_vr;60.78306826846739;
5;BAUM;Natur;p;1;2;12;0;p;1;0.7128677000000607;002;ASMS67;2019_Nov_28_1016;iat_vr;60.78306826846739;
5;BLUME;Natur;p;1;3;13;2;p;1;0.6489908999992622;002;ASMS67;2019_Nov_28_1016;iat_vr;60.78306826846739;
5;WASSER;Natur;p;1;4;14;1;p;1;0.5839651999995112;002;ASMS67;2019_Nov_28_1016;iat_vr;60.78306826846739;
5;KLEIDER;Gemacht;q;1;5;15;7;q;1;0.7126776999994036;002;ASMS67;2019_Nov_28_1016;iat_vr;60.78306826846739;
5;TIER;Natur;p;1;6;16;3;p;1;0.7422237000000678;002;ASMS67;2019_Nov_28_1016;iat_vr;60.78306826846739;
5;STEIN;Natur;p;1;7;17;4;p;1;0.5695550999998886;002;ASMS67;2019_Nov_28_1016;iat_vr;60.78306826846739;
5;COMPUTER;Gemacht;q;1;8;18;8;q;1;0.6480235999997603;002;ASMS67;2019_Nov_28_1016;iat_vr;60.78306826846739;
5;GEBÄUDE;Gemacht;q;1;9;19;5;q;1;0.6462074999999459;002;ASMS67;2019_Nov_28_1016;iat_vr;60.78306826846739;
;;;;;;;;;;;002;ASMS67;2019_Nov_28_1016;iat_vr;60.78306826846739;
6;HERVORRAGEND;positiv;p;0;0;0;17;p;1;1.058817199999794;002;ASMS67;2019_Nov_28_1016;iat_vr;60.78306826846739;
6;SCHLECHT;negativ;q;0;1;1;11;q;1;0.7162859000000026;002;ASMS67;2019_Nov_28_1016;iat_vr;60.78306826846739;
6;BAUM;Natur;p;0;2;2;0;p;1;0.9687201999995523;002;ASMS67;2019_Nov_28_1016;iat_vr;60.78306826846739;
6;SCHÄDLICH;negativ;q;0;3;3;13;q;1;0.8952801999994335;002;ASMS67;2019_Nov_28_1016;iat_vr;60.78306826846739;
6;TIER;Natur;p;0;4;4;3;p;1;0.6967466000005516;002;ASMS67;2019_Nov_28_1016;iat_vr;60.78306826846739;
6;COMPUTER;Gemacht;q;0;5;5;8;q;1;0.7839530999999624;002;ASMS67;2019_Nov_28_1016;iat_vr;60.78306826846739;
6;STADT;Gemacht;q;0;6;6;6;q;1;0.5462879999995494;002;ASMS67;2019_Nov_28_1016;iat_vr;60.78306826846739;
6;EINWANDFREI;positiv;p;0;7;7;16;p;1;0.6751276999993934;002;ASMS67;2019_Nov_28_1016;iat_vr;60.78306826846739;
6;AUSGEZEICHNET;positiv;p;0;8;8;15;p;1;0.6836300000004485;002;ASMS67;2019_Nov_28_1016;iat_vr;60.78306826846739;
6;SCHWACH;negativ;q;0;9;9;14;q;1;0.6308761000000231;002;ASMS67;2019_Nov_28_1016;iat_vr;60.78306826846739;
6;GEBÄUDE;Gemacht;q;0;10;10;5;q;1;0.6343858999998702;002;ASMS67;2019_Nov_28_1016;iat_vr;60.78306826846739;
6;POSITIV;positiv;p;0;11;11;18;p;1;0.6314315999998144;002;ASMS67;2019_Nov_28_1016;iat_vr;60.78306826846739;
6;BLUME;Natur;p;0;12;12;2;p;1;0.5860342999994828;002;ASMS67;2019_Nov_28_1016;iat_vr;60.78306826846739;
6;LAMPE;Gemacht;q;0;13;13;9;q;1;0.680310499999905;002;ASMS67;2019_Nov_28_1016;iat_vr;60.78306826846739;
6;WASSER;Natur;p;0;14;14;1;p;1;0.9852880999997069;002;ASMS67;2019_Nov_28_1016;iat_vr;60.78306826846739;
6;STEIN;Natur;p;0;15;15;4;p;1;0.5305397000001904;002;ASMS67;2019_Nov_28_1016;iat_vr;60.78306826846739;
6;NEGATIV;negativ;q;0;16;16;12;q;1;0.6146226000000752;002;ASMS67;2019_Nov_28_1016;iat_vr;60.78306826846739;
6;GUT;positiv;p;0;17;17;19;p;1;0.6952178000001368;002;ASMS67;2019_Nov_28_1016;iat_vr;60.78306826846739;
6;KLEIDER;Gemacht;q;0;18;18;7;q;1;0.852083899999343;002;ASMS67;2019_Nov_28_1016;iat_vr;60.78306826846739;
6;SCHLIMM;negativ;q;0;19;19;10;q;1;0.7298577999999907;002;ASMS67;2019_Nov_28_1016;iat_vr;60.78306826846739;
;;;;;;;;;;;002;ASMS67;2019_Nov_28_1016;iat_vr;60.78306826846739;
7;COMPUTER;Gemacht;q;0;0;0;8;q;1;2.685449300000073;002;ASMS67;2019_Nov_28_1016;iat_vr;60.78306826846739;
7;WASSER;Natur;p;0;1;1;1;p;1;0.5481816000001345;002;ASMS67;2019_Nov_28_1016;iat_vr;60.78306826846739;
7;EINWANDFREI;positiv;p;0;2;2;16;p;1;0.6178061000000525;002;ASMS67;2019_Nov_28_1016;iat_vr;60.78306826846739;
7;POSITIV;positiv;p;0;3;3;18;p;1;0.6304870000003575;002;ASMS67;2019_Nov_28_1016;iat_vr;60.78306826846739;
7;SCHWACH;negativ;q;0;4;4;14;q;1;0.5805698000003758;002;ASMS67;2019_Nov_28_1016;iat_vr;60.78306826846739;
7;SCHÄDLICH;negativ;q;0;5;5;13;q;1;0.5689374000003227;002;ASMS67;2019_Nov_28_1016;iat_vr;60.78306826846739;
7;GUT;positiv;p;0;6;6;19;p;1;0.5633039000003919;002;ASMS67;2019_Nov_28_1016;iat_vr;60.78306826846739;
7;GEBÄUDE;Gemacht;q;0;7;7;5;q;1;0.6504776000001584;002;ASMS67;2019_Nov_28_1016;iat_vr;60.78306826846739;
7;STADT;Gemacht;q;0;8;8;6;q;1;0.6801870999997846;002;ASMS67;2019_Nov_28_1016;iat_vr;60.78306826846739;
7;KLEIDER;Gemacht;q;0;9;9;7;q;1;0.6160916999997426;002;ASMS67;2019_Nov_28_1016;iat_vr;60.78306826846739;
7;SCHLIMM;negativ;q;0;10;10;10;q;1;0.6292543999998088;002;ASMS67;2019_Nov_28_1016;iat_vr;60.78306826846739;
7;HERVORRAGEND;positiv;p;0;11;11;17;p;1;0.5619132000001628;002;ASMS67;2019_Nov_28_1016;iat_vr;60.78306826846739;
7;BAUM;Natur;p;0;12;12;0;p;1;0.5170580000003611;002;ASMS67;2019_Nov_28_1016;iat_vr;60.78306826846739;
7;STEIN;Natur;p;0;13;13;4;p;1;0.5856954999999289;002;ASMS67;2019_Nov_28_1016;iat_vr;60.78306826846739;
7;BLUME;Natur;p;0;14;14;2;p;1;0.5801650000003065;002;ASMS67;2019_Nov_28_1016;iat_vr;60.78306826846739;
7;NEGATIV;negativ;q;0;15;15;12;q;1;0.568997300000774;002;ASMS67;2019_Nov_28_1016;iat_vr;60.78306826846739;
7;AUSGEZEICHNET;positiv;p;0;16;16;15;p;1;0.8107961999994586;002;ASMS67;2019_Nov_28_1016;iat_vr;60.78306826846739;
7;LAMPE;Gemacht;q;0;17;17;9;q;1;0.567837700000382;002;ASMS67;2019_Nov_28_1016;iat_vr;60.78306826846739;
7;TIER;Natur;p;0;18;18;3;p;1;0.550633700000617;002;ASMS67;2019_Nov_28_1016;iat_vr;60.78306826846739;
7;SCHLECHT;negativ;q;0;19;19;11;q;1;0.5668576000007306;002;ASMS67;2019_Nov_28_1016;iat_vr;60.78306826846739;
7;POSITIV;positiv;p;1;0;20;18;p;1;0.6172573000003467;002;ASMS67;2019_Nov_28_1016;iat_vr;60.78306826846739;
7;LAMPE;Gemacht;q;1;1;21;9;q;1;0.6363421999994898;002;ASMS67;2019_Nov_28_1016;iat_vr;60.78306826846739;
7;STEIN;Natur;p;1;2;22;4;q;0;0.5198725999998715;002;ASMS67;2019_Nov_28_1016;iat_vr;60.78306826846739;
7;SCHWACH;negativ;q;1;3;23;14;q;1;0.9943126999996821;002;ASMS67;2019_Nov_28_1016;iat_vr;60.78306826846739;
7;COMPUTER;Gemacht;q;1;4;24;8;q;1;0.9522579000004043;002;ASMS67;2019_Nov_28_1016;iat_vr;60.78306826846739;
7;EINWANDFREI;positiv;p;1;5;25;16;p;1;0.6856662999998662;002;ASMS67;2019_Nov_28_1016;iat_vr;60.78306826846739;
7;KLEIDER;Gemacht;q;1;6;26;7;q;1;0.7810753000003388;002;ASMS67;2019_Nov_28_1016;iat_vr;60.78306826846739;
7;BAUM;Natur;p;1;7;27;0;p;1;0.5820593000007648;002;ASMS67;2019_Nov_28_1016;iat_vr;60.78306826846739;
7;SCHLIMM;negativ;q;1;8;28;10;q;1;0.9130996000003506;002;ASMS67;2019_Nov_28_1016;iat_vr;60.78306826846739;
7;GEBÄUDE;Gemacht;q;1;9;29;5;q;1;0.880765099999735;002;ASMS67;2019_Nov_28_1016;iat_vr;60.78306826846739;
7;NEGATIV;negativ;q;1;10;30;12;q;1;0.6147956000004342;002;ASMS67;2019_Nov_28_1016;iat_vr;60.78306826846739;
7;SCHÄDLICH;negativ;q;1;11;31;13;q;1;0.6624621000000843;002;ASMS67;2019_Nov_28_1016;iat_vr;60.78306826846739;
7;WASSER;Natur;p;1;12;32;1;p;1;0.5300869000002422;002;ASMS67;2019_Nov_28_1016;iat_vr;60.78306826846739;
7;AUSGEZEICHNET;positiv;p;1;13;33;15;p;1;0.7258014999997613;002;ASMS67;2019_Nov_28_1016;iat_vr;60.78306826846739;
7;BLUME;Natur;p;1;14;34;2;p;1;0.46506140000019514;002;ASMS67;2019_Nov_28_1016;iat_vr;60.78306826846739;
7;HERVORRAGEND;positiv;p;1;15;35;17;p;1;0.6924895000001925;002;ASMS67;2019_Nov_28_1016;iat_vr;60.78306826846739;
7;GUT;positiv;p;1;16;36;19;p;1;0.5496296999999686;002;ASMS67;2019_Nov_28_1016;iat_vr;60.78306826846739;
7;SCHLECHT;negativ;q;1;17;37;11;q;1;0.7684526000002734;002;ASMS67;2019_Nov_28_1016;iat_vr;60.78306826846739;
7;TIER;Natur;p;1;18;38;3;p;1;0.9674006000004738;002;ASMS67;2019_Nov_28_1016;iat_vr;60.78306826846739;
7;STADT;Gemacht;q;1;19;39;6;q;1;0.5799569000000702;002;ASMS67;2019_Nov_28_1016;iat_vr;60.78306826846739;
;;;;;;;;;;;002;ASMS67;2019_Nov_28_1016;iat_vr;60.78306826846739;
