Block;Word;Category;CorrResp;trials.thisRepN;trials.thisTrialN;trials.thisN;trials.thisIndex;key_resp_2.keys;key_resp_2.corr;key_resp_2.rt;session;participant;date;expName;frameRate;
1;BLUME;Natur;q;0;0;0;2;q;1;1.2570771000000036;001;ASSA97;2019_Nov_28_0841;iat_vr;59.952613454329125;
1;GEBÄUDE;Gemacht;p;0;1;1;5;p;1;0.9361561999999992;001;ASSA97;2019_Nov_28_0841;iat_vr;59.952613454329125;
1;WASSER;Natur;q;0;2;2;1;q;1;0.7842818000000022;001;ASSA97;2019_Nov_28_0841;iat_vr;59.952613454329125;
1;BAUM;Natur;q;0;3;3;0;q;1;0.8346347000000094;001;ASSA97;2019_Nov_28_0841;iat_vr;59.952613454329125;
1;STADT;Gemacht;p;0;4;4;6;p;1;0.999032100000008;001;ASSA97;2019_Nov_28_0841;iat_vr;59.952613454329125;
1;COMPUTER;Gemacht;p;0;5;5;8;p;1;0.6507253999999989;001;ASSA97;2019_Nov_28_0841;iat_vr;59.952613454329125;
1;LAMPE;Gemacht;p;0;6;6;9;p;1;0.933879399999995;001;ASSA97;2019_Nov_28_0841;iat_vr;59.952613454329125;
1;TIER;Natur;q;0;7;7;3;q;1;0.8854045999999869;001;ASSA97;2019_Nov_28_0841;iat_vr;59.952613454329125;
1;KLEIDER;Gemacht;p;0;8;8;7;p;1;0.7669594999999845;001;ASSA97;2019_Nov_28_0841;iat_vr;59.952613454329125;
1;STEIN;Natur;q;0;9;9;4;q;1;0.7019276999999988;001;ASSA97;2019_Nov_28_0841;iat_vr;59.952613454329125;
1;WASSER;Natur;q;1;0;10;1;q;1;0.6336487000000091;001;ASSA97;2019_Nov_28_0841;iat_vr;59.952613454329125;
1;BAUM;Natur;q;1;1;11;0;q;1;0.7989317999999912;001;ASSA97;2019_Nov_28_0841;iat_vr;59.952613454329125;
1;LAMPE;Gemacht;p;1;2;12;9;p;1;1.1132690000000025;001;ASSA97;2019_Nov_28_0841;iat_vr;59.952613454329125;
1;KLEIDER;Gemacht;p;1;3;13;7;p;1;0.6826125999999988;001;ASSA97;2019_Nov_28_0841;iat_vr;59.952613454329125;
1;STEIN;Natur;q;1;4;14;4;q;1;0.9668623999999966;001;ASSA97;2019_Nov_28_0841;iat_vr;59.952613454329125;
1;TIER;Natur;q;1;5;15;3;q;1;0.7670241000000146;001;ASSA97;2019_Nov_28_0841;iat_vr;59.952613454329125;
1;GEBÄUDE;Gemacht;p;1;6;16;5;p;1;0.6004652000000021;001;ASSA97;2019_Nov_28_0841;iat_vr;59.952613454329125;
1;COMPUTER;Gemacht;p;1;7;17;8;p;1;0.5669633999999917;001;ASSA97;2019_Nov_28_0841;iat_vr;59.952613454329125;
1;STADT;Gemacht;p;1;8;18;6;p;1;0.6000841999999977;001;ASSA97;2019_Nov_28_0841;iat_vr;59.952613454329125;
1;BLUME;Natur;q;1;9;19;2;q;1;0.5674292999999864;001;ASSA97;2019_Nov_28_0841;iat_vr;59.952613454329125;
;;;;;;;;;;;001;ASSA97;2019_Nov_28_0841;iat_vr;59.952613454329125;
2;SCHLIMM;negativ;q;0;0;0;0;q;1;0.9367746000000068;001;ASSA97;2019_Nov_28_0841;iat_vr;59.952613454329125;
2;SCHWACH;negativ;q;0;1;1;4;q;1;1.15021950000002;001;ASSA97;2019_Nov_28_0841;iat_vr;59.952613454329125;
2;GUT;positiv;p;0;2;2;9;p;1;0.7005155999999886;001;ASSA97;2019_Nov_28_0841;iat_vr;59.952613454329125;
2;HERVORRAGEND;positiv;p;0;3;3;7;p;1;0.7321249000000023;001;ASSA97;2019_Nov_28_0841;iat_vr;59.952613454329125;
2;AUSGEZEICHNET;positiv;p;0;4;4;5;p;1;0.6654518999999937;001;ASSA97;2019_Nov_28_0841;iat_vr;59.952613454329125;
2;POSITIV;positiv;p;0;5;5;8;p;1;0.7172337000000084;001;ASSA97;2019_Nov_28_0841;iat_vr;59.952613454329125;
2;EINWANDFREI;positiv;p;0;6;6;6;p;1;0.8170612000000119;001;ASSA97;2019_Nov_28_0841;iat_vr;59.952613454329125;
2;SCHLECHT;negativ;q;0;7;7;1;q;1;0.7501747999999964;001;ASSA97;2019_Nov_28_0841;iat_vr;59.952613454329125;
2;SCHÄDLICH;negativ;q;0;8;8;3;q;1;0.7504433999999947;001;ASSA97;2019_Nov_28_0841;iat_vr;59.952613454329125;
2;NEGATIV;negativ;q;0;9;9;2;q;1;0.733437500000008;001;ASSA97;2019_Nov_28_0841;iat_vr;59.952613454329125;
2;SCHLECHT;negativ;q;1;0;10;1;q;1;0.6838750999999945;001;ASSA97;2019_Nov_28_0841;iat_vr;59.952613454329125;
2;SCHLIMM;negativ;q;1;1;11;0;q;1;0.6842201999999986;001;ASSA97;2019_Nov_28_0841;iat_vr;59.952613454329125;
2;AUSGEZEICHNET;positiv;p;1;2;12;5;p;1;0.6681722999999806;001;ASSA97;2019_Nov_28_0841;iat_vr;59.952613454329125;
2;NEGATIV;negativ;q;1;3;13;2;q;1;0.6468864999999937;001;ASSA97;2019_Nov_28_0841;iat_vr;59.952613454329125;
2;EINWANDFREI;positiv;p;1;4;14;6;p;1;0.6661832000000061;001;ASSA97;2019_Nov_28_0841;iat_vr;59.952613454329125;
2;POSITIV;positiv;p;1;5;15;8;p;1;0.6441072000000077;001;ASSA97;2019_Nov_28_0841;iat_vr;59.952613454329125;
2;SCHWACH;negativ;q;1;6;16;4;q;1;0.897664500000019;001;ASSA97;2019_Nov_28_0841;iat_vr;59.952613454329125;
2;HERVORRAGEND;positiv;p;1;7;17;7;p;1;0.7126252999999849;001;ASSA97;2019_Nov_28_0841;iat_vr;59.952613454329125;
2;GUT;positiv;p;1;8;18;9;p;1;0.5819274000000121;001;ASSA97;2019_Nov_28_0841;iat_vr;59.952613454329125;
2;SCHÄDLICH;negativ;q;1;9;19;3;q;1;0.7007959999999969;001;ASSA97;2019_Nov_28_0841;iat_vr;59.952613454329125;
;;;;;;;;;;;001;ASSA97;2019_Nov_28_0841;iat_vr;59.952613454329125;
3;STADT;Gemacht;p;0;0;0;16;p;1;1.2430820000000153;001;ASSA97;2019_Nov_28_0841;iat_vr;59.952613454329125;
3;GEBÄUDE;Gemacht;p;0;1;1;15;p;1;0.6336065999999789;001;ASSA97;2019_Nov_28_0841;iat_vr;59.952613454329125;
3;POSITIV;positiv;p;0;2;2;8;p;1;0.7169442000000004;001;ASSA97;2019_Nov_28_0841;iat_vr;59.952613454329125;
3;EINWANDFREI;positiv;p;0;3;3;6;p;1;0.6003076000000078;001;ASSA97;2019_Nov_28_0841;iat_vr;59.952613454329125;
3;STEIN;Natur;q;0;4;4;14;q;1;0.9502871999999911;001;ASSA97;2019_Nov_28_0841;iat_vr;59.952613454329125;
3;KLEIDER;Gemacht;p;0;5;5;17;p;1;0.7004970999999784;001;ASSA97;2019_Nov_28_0841;iat_vr;59.952613454329125;
3;BLUME;Natur;q;0;6;6;12;q;1;0.966858000000002;001;ASSA97;2019_Nov_28_0841;iat_vr;59.952613454329125;
3;NEGATIV;negativ;q;0;7;7;2;q;1;0.966764100000006;001;ASSA97;2019_Nov_28_0841;iat_vr;59.952613454329125;
3;SCHLIMM;negativ;q;0;8;8;0;q;1;0.6666541000000166;001;ASSA97;2019_Nov_28_0841;iat_vr;59.952613454329125;
3;BAUM;Natur;q;0;9;9;10;p;0;1.0169400999999993;001;ASSA97;2019_Nov_28_0841;iat_vr;59.952613454329125;
3;SCHÄDLICH;negativ;q;0;10;10;3;q;1;0.05029559999999833;001;ASSA97;2019_Nov_28_0841;iat_vr;59.952613454329125;
3;AUSGEZEICHNET;positiv;p;0;11;11;5;p;1;1.1335444000000052;001;ASSA97;2019_Nov_28_0841;iat_vr;59.952613454329125;
3;SCHWACH;negativ;q;0;12;12;4;q;1;0.9171106000000009;001;ASSA97;2019_Nov_28_0841;iat_vr;59.952613454329125;
3;GUT;positiv;p;0;13;13;9;p;1;0.8671087999999827;001;ASSA97;2019_Nov_28_0841;iat_vr;59.952613454329125;
3;LAMPE;Gemacht;p;0;14;14;19;p;1;1.0672635000000241;001;ASSA97;2019_Nov_28_0841;iat_vr;59.952613454329125;
3;HERVORRAGEND;positiv;p;0;15;15;7;p;1;0.766996000000006;001;ASSA97;2019_Nov_28_0841;iat_vr;59.952613454329125;
3;WASSER;Natur;q;0;16;16;11;q;1;0.7503044000000045;001;ASSA97;2019_Nov_28_0841;iat_vr;59.952613454329125;
3;SCHLECHT;negativ;q;0;17;17;1;q;1;0.5335942000000102;001;ASSA97;2019_Nov_28_0841;iat_vr;59.952613454329125;
3;TIER;Natur;q;0;18;18;13;q;1;1.0672434999999894;001;ASSA97;2019_Nov_28_0841;iat_vr;59.952613454329125;
3;COMPUTER;Gemacht;p;0;19;19;18;p;1;0.5502125999999805;001;ASSA97;2019_Nov_28_0841;iat_vr;59.952613454329125;
;;;;;;;;;;;001;ASSA97;2019_Nov_28_0841;iat_vr;59.952613454329125;
4;COMPUTER;Gemacht;p;0;0;0;18;p;1;1.5153999999999996;001;ASSA97;2019_Nov_28_0841;iat_vr;59.952613454329125;
4;GEBÄUDE;Gemacht;p;0;1;1;15;p;1;0.6500512000000072;001;ASSA97;2019_Nov_28_0841;iat_vr;59.952613454329125;
4;WASSER;Natur;q;0;2;2;11;q;1;0.7176809000000048;001;ASSA97;2019_Nov_28_0841;iat_vr;59.952613454329125;
4;HERVORRAGEND;positiv;p;0;3;3;7;p;1;1.0836788000000013;001;ASSA97;2019_Nov_28_0841;iat_vr;59.952613454329125;
4;SCHWACH;negativ;q;0;4;4;4;q;1;0.7171372999999903;001;ASSA97;2019_Nov_28_0841;iat_vr;59.952613454329125;
4;SCHÄDLICH;negativ;q;0;5;5;3;q;1;0.9168255999999815;001;ASSA97;2019_Nov_28_0841;iat_vr;59.952613454329125;
4;EINWANDFREI;positiv;p;0;6;6;6;p;1;0.6003875000000107;001;ASSA97;2019_Nov_28_0841;iat_vr;59.952613454329125;
4;BAUM;Natur;q;0;7;7;10;q;1;1.2169470999999987;001;ASSA97;2019_Nov_28_0841;iat_vr;59.952613454329125;
4;KLEIDER;Gemacht;p;0;8;8;17;p;1;0.601033000000001;001;ASSA97;2019_Nov_28_0841;iat_vr;59.952613454329125;
4;SCHLECHT;negativ;q;0;9;9;1;q;1;0.5500581999999952;001;ASSA97;2019_Nov_28_0841;iat_vr;59.952613454329125;
4;STADT;Gemacht;p;0;10;10;16;p;1;1.51677269999999;001;ASSA97;2019_Nov_28_0841;iat_vr;59.952613454329125;
4;GUT;positiv;p;0;11;11;9;p;1;0.649975899999987;001;ASSA97;2019_Nov_28_0841;iat_vr;59.952613454329125;
4;POSITIV;positiv;p;0;12;12;8;p;1;0.6333403000000146;001;ASSA97;2019_Nov_28_0841;iat_vr;59.952613454329125;
4;NEGATIV;negativ;q;0;13;13;2;q;1;0.6006055000000003;001;ASSA97;2019_Nov_28_0841;iat_vr;59.952613454329125;
4;STEIN;Natur;q;0;14;14;14;q;1;0.6669213000000127;001;ASSA97;2019_Nov_28_0841;iat_vr;59.952613454329125;
4;SCHLIMM;negativ;q;0;15;15;0;q;1;0.6167748999999958;001;ASSA97;2019_Nov_28_0841;iat_vr;59.952613454329125;
4;TIER;Natur;q;0;16;16;13;q;1;0.7336378999999909;001;ASSA97;2019_Nov_28_0841;iat_vr;59.952613454329125;
4;BLUME;Natur;q;0;17;17;12;q;1;0.5626160000000198;001;ASSA97;2019_Nov_28_0841;iat_vr;59.952613454329125;
4;AUSGEZEICHNET;positiv;p;0;18;18;5;p;1;0.666733000000022;001;ASSA97;2019_Nov_28_0841;iat_vr;59.952613454329125;
4;LAMPE;Gemacht;p;0;19;19;19;q;0;0.6337435000000085;001;ASSA97;2019_Nov_28_0841;iat_vr;59.952613454329125;
4;TIER;Natur;q;1;0;20;13;q;1;1.0503488999999888;001;ASSA97;2019_Nov_28_0841;iat_vr;59.952613454329125;
4;STEIN;Natur;q;1;1;21;14;q;1;0.6835734000000002;001;ASSA97;2019_Nov_28_0841;iat_vr;59.952613454329125;
4;STADT;Gemacht;p;1;2;22;16;p;1;0.683215199999978;001;ASSA97;2019_Nov_28_0841;iat_vr;59.952613454329125;
4;KLEIDER;Gemacht;p;1;3;23;17;p;1;0.6179474999999854;001;ASSA97;2019_Nov_28_0841;iat_vr;59.952613454329125;
4;SCHLIMM;negativ;q;1;4;24;0;q;1;0.6455093999999804;001;ASSA97;2019_Nov_28_0841;iat_vr;59.952613454329125;
4;HERVORRAGEND;positiv;p;1;5;25;7;p;1;0.6506971000000021;001;ASSA97;2019_Nov_28_0841;iat_vr;59.952613454329125;
4;SCHWACH;negativ;q;1;6;26;4;q;1;0.7834425000000067;001;ASSA97;2019_Nov_28_0841;iat_vr;59.952613454329125;
4;GUT;positiv;p;1;7;27;9;p;1;0.5689204999999902;001;ASSA97;2019_Nov_28_0841;iat_vr;59.952613454329125;
4;NEGATIV;negativ;q;1;8;28;2;q;1;0.784532200000001;001;ASSA97;2019_Nov_28_0841;iat_vr;59.952613454329125;
4;GEBÄUDE;Gemacht;p;1;9;29;15;p;1;0.6261325000000113;001;ASSA97;2019_Nov_28_0841;iat_vr;59.952613454329125;
4;LAMPE;Gemacht;p;1;10;30;19;p;1;0.6170396999999923;001;ASSA97;2019_Nov_28_0841;iat_vr;59.952613454329125;
4;COMPUTER;Gemacht;p;1;11;31;18;p;1;0.5802202000000136;001;ASSA97;2019_Nov_28_0841;iat_vr;59.952613454329125;
4;EINWANDFREI;positiv;p;1;12;32;6;p;1;0.6387866000000031;001;ASSA97;2019_Nov_28_0841;iat_vr;59.952613454329125;
4;SCHLECHT;negativ;q;1;13;33;1;q;1;0.6313800999999728;001;ASSA97;2019_Nov_28_0841;iat_vr;59.952613454329125;
4;SCHÄDLICH;negativ;q;1;14;34;3;q;1;0.797776400000032;001;ASSA97;2019_Nov_28_0841;iat_vr;59.952613454329125;
4;POSITIV;positiv;p;1;15;35;8;p;1;0.6470231999999783;001;ASSA97;2019_Nov_28_0841;iat_vr;59.952613454329125;
4;WASSER;Natur;q;1;16;36;11;q;1;0.61893120000002;001;ASSA97;2019_Nov_28_0841;iat_vr;59.952613454329125;
4;BLUME;Natur;q;1;17;37;12;q;1;1.7320566000000213;001;ASSA97;2019_Nov_28_0841;iat_vr;59.952613454329125;
4;AUSGEZEICHNET;positiv;p;1;18;38;5;p;1;0.6295752999999991;001;ASSA97;2019_Nov_28_0841;iat_vr;59.952613454329125;
4;BAUM;Natur;q;1;19;39;10;q;1;1.0155118999999786;001;ASSA97;2019_Nov_28_0841;iat_vr;59.952613454329125;
;;;;;;;;;;;001;ASSA97;2019_Nov_28_0841;iat_vr;59.952613454329125;
5;BLUME;Natur;p;0;0;0;2;p;1;1.0294055999999614;001;ASSA97;2019_Nov_28_0841;iat_vr;59.952613454329125;
5;TIER;Natur;p;0;1;1;3;p;1;0.6824536999999964;001;ASSA97;2019_Nov_28_0841;iat_vr;59.952613454329125;
5;STADT;Gemacht;q;0;2;2;6;q;1;0.6634371000000101;001;ASSA97;2019_Nov_28_0841;iat_vr;59.952613454329125;
5;LAMPE;Gemacht;q;0;3;3;9;q;1;0.6846285999999964;001;ASSA97;2019_Nov_28_0841;iat_vr;59.952613454329125;
5;KLEIDER;Gemacht;q;0;4;4;7;q;1;0.5945581000000288;001;ASSA97;2019_Nov_28_0841;iat_vr;59.952613454329125;
5;BAUM;Natur;p;0;5;5;0;p;1;0.5836527999999817;001;ASSA97;2019_Nov_28_0841;iat_vr;59.952613454329125;
5;GEBÄUDE;Gemacht;q;0;6;6;5;q;1;0.6795997999999486;001;ASSA97;2019_Nov_28_0841;iat_vr;59.952613454329125;
5;COMPUTER;Gemacht;q;0;7;7;8;q;1;0.6139188000000217;001;ASSA97;2019_Nov_28_0841;iat_vr;59.952613454329125;
5;STEIN;Natur;p;0;8;8;4;p;1;0.7011932999999999;001;ASSA97;2019_Nov_28_0841;iat_vr;59.952613454329125;
5;WASSER;Natur;p;0;9;9;1;p;1;0.5972195000000511;001;ASSA97;2019_Nov_28_0841;iat_vr;59.952613454329125;
5;BLUME;Natur;p;1;0;10;2;p;1;0.5804042999999979;001;ASSA97;2019_Nov_28_0841;iat_vr;59.952613454329125;
5;TIER;Natur;p;1;1;11;3;p;1;0.565426299999956;001;ASSA97;2019_Nov_28_0841;iat_vr;59.952613454329125;
5;KLEIDER;Gemacht;q;1;2;12;7;q;1;0.6275649000000385;001;ASSA97;2019_Nov_28_0841;iat_vr;59.952613454329125;
5;STADT;Gemacht;q;1;3;13;6;q;1;0.5153887000000168;001;ASSA97;2019_Nov_28_0841;iat_vr;59.952613454329125;
5;GEBÄUDE;Gemacht;q;1;4;14;5;q;1;0.5655512999999814;001;ASSA97;2019_Nov_28_0841;iat_vr;59.952613454329125;
5;WASSER;Natur;p;1;5;15;1;p;1;0.5495515000000069;001;ASSA97;2019_Nov_28_0841;iat_vr;59.952613454329125;
5;STEIN;Natur;p;1;6;16;4;p;1;1.2653096000000232;001;ASSA97;2019_Nov_28_0841;iat_vr;59.952613454329125;
5;BAUM;Natur;p;1;7;17;0;p;1;0.5511870000000272;001;ASSA97;2019_Nov_28_0841;iat_vr;59.952613454329125;
5;LAMPE;Gemacht;q;1;8;18;9;q;1;0.5664462999999955;001;ASSA97;2019_Nov_28_0841;iat_vr;59.952613454329125;
5;COMPUTER;Gemacht;q;1;9;19;8;q;1;0.5016481000000113;001;ASSA97;2019_Nov_28_0841;iat_vr;59.952613454329125;
;;;;;;;;;;;001;ASSA97;2019_Nov_28_0841;iat_vr;59.952613454329125;
6;EINWANDFREI;positiv;p;0;0;0;16;p;1;0.7950037999999608;001;ASSA97;2019_Nov_28_0841;iat_vr;59.952613454329125;
6;LAMPE;Gemacht;q;0;1;1;9;q;1;0.6320402999999715;001;ASSA97;2019_Nov_28_0841;iat_vr;59.952613454329125;
6;STEIN;Natur;p;0;2;2;4;p;1;0.6340404999999691;001;ASSA97;2019_Nov_28_0841;iat_vr;59.952613454329125;
6;HERVORRAGEND;positiv;p;0;3;3;17;p;1;1.7280885000000126;001;ASSA97;2019_Nov_28_0841;iat_vr;59.952613454329125;
6;BLUME;Natur;p;0;4;4;2;p;1;0.601477999999986;001;ASSA97;2019_Nov_28_0841;iat_vr;59.952613454329125;
6;SCHLIMM;negativ;q;0;5;5;10;q;1;0.6287776000000349;001;ASSA97;2019_Nov_28_0841;iat_vr;59.952613454329125;
6;TIER;Natur;p;0;6;6;3;p;1;0.7968905000000177;001;ASSA97;2019_Nov_28_0841;iat_vr;59.952613454329125;
6;SCHWACH;negativ;q;0;7;7;14;q;1;0.8318393999999785;001;ASSA97;2019_Nov_28_0841;iat_vr;59.952613454329125;
6;SCHÄDLICH;negativ;q;0;8;8;13;q;1;0.7348648000000253;001;ASSA97;2019_Nov_28_0841;iat_vr;59.952613454329125;
6;WASSER;Natur;p;0;9;9;1;p;1;0.7500762000000236;001;ASSA97;2019_Nov_28_0841;iat_vr;59.952613454329125;
6;SCHLECHT;negativ;q;0;10;10;11;q;1;0.7937961000000087;001;ASSA97;2019_Nov_28_0841;iat_vr;59.952613454329125;
6;COMPUTER;Gemacht;q;0;11;11;8;q;1;0.5611863999999969;001;ASSA97;2019_Nov_28_0841;iat_vr;59.952613454329125;
6;KLEIDER;Gemacht;q;0;12;12;7;q;1;0.549229299999979;001;ASSA97;2019_Nov_28_0841;iat_vr;59.952613454329125;
6;POSITIV;positiv;p;0;13;13;18;p;1;0.6691559999999868;001;ASSA97;2019_Nov_28_0841;iat_vr;59.952613454329125;
6;AUSGEZEICHNET;positiv;p;0;14;14;15;p;1;0.5448786000000041;001;ASSA97;2019_Nov_28_0841;iat_vr;59.952613454329125;
6;STADT;Gemacht;q;0;15;15;6;q;1;0.8318504999999732;001;ASSA97;2019_Nov_28_0841;iat_vr;59.952613454329125;
6;GEBÄUDE;Gemacht;q;0;16;16;5;q;1;1.1974397999999837;001;ASSA97;2019_Nov_28_0841;iat_vr;59.952613454329125;
6;BAUM;Natur;p;0;17;17;0;p;1;0.669404400000019;001;ASSA97;2019_Nov_28_0841;iat_vr;59.952613454329125;
6;GUT;positiv;p;0;18;18;19;p;1;0.5821439000000055;001;ASSA97;2019_Nov_28_0841;iat_vr;59.952613454329125;
6;NEGATIV;negativ;q;0;19;19;12;q;1;0.6181561000000215;001;ASSA97;2019_Nov_28_0841;iat_vr;59.952613454329125;
;;;;;;;;;;;001;ASSA97;2019_Nov_28_0841;iat_vr;59.952613454329125;
7;EINWANDFREI;positiv;p;0;0;0;16;p;1;1.5165809000000081;001;ASSA97;2019_Nov_28_0841;iat_vr;59.952613454329125;
7;HERVORRAGEND;positiv;p;0;1;1;17;p;1;1.127898899999991;001;ASSA97;2019_Nov_28_0841;iat_vr;59.952613454329125;
7;SCHLECHT;negativ;q;0;2;2;11;q;1;0.6687226000000237;001;ASSA97;2019_Nov_28_0841;iat_vr;59.952613454329125;
7;KLEIDER;Gemacht;q;0;3;3;7;q;1;0.5133468999999877;001;ASSA97;2019_Nov_28_0841;iat_vr;59.952613454329125;
7;BAUM;Natur;p;0;4;4;0;p;1;0.5851340999999479;001;ASSA97;2019_Nov_28_0841;iat_vr;59.952613454329125;
7;COMPUTER;Gemacht;q;0;5;5;8;q;1;0.595473400000003;001;ASSA97;2019_Nov_28_0841;iat_vr;59.952613454329125;
7;STADT;Gemacht;q;0;6;6;6;q;1;0.6002943999999957;001;ASSA97;2019_Nov_28_0841;iat_vr;59.952613454329125;
7;STEIN;Natur;p;0;7;7;4;p;1;1.1521971999999892;001;ASSA97;2019_Nov_28_0841;iat_vr;59.952613454329125;
7;SCHÄDLICH;negativ;q;0;8;8;13;q;1;0.5924404000000436;001;ASSA97;2019_Nov_28_0841;iat_vr;59.952613454329125;
7;POSITIV;positiv;p;0;9;9;18;p;1;0.7189994000000297;001;ASSA97;2019_Nov_28_0841;iat_vr;59.952613454329125;
7;WASSER;Natur;p;0;10;10;1;p;1;0.6022025000000326;001;ASSA97;2019_Nov_28_0841;iat_vr;59.952613454329125;
7;BLUME;Natur;p;0;11;11;2;p;1;0.4967646000000059;001;ASSA97;2019_Nov_28_0841;iat_vr;59.952613454329125;
7;GEBÄUDE;Gemacht;q;0;12;12;5;q;1;0.5842289999999934;001;ASSA97;2019_Nov_28_0841;iat_vr;59.952613454329125;
7;AUSGEZEICHNET;positiv;p;0;13;13;15;p;1;0.5684211999999889;001;ASSA97;2019_Nov_28_0841;iat_vr;59.952613454329125;
7;LAMPE;Gemacht;q;0;14;14;9;q;1;0.7813380999999708;001;ASSA97;2019_Nov_28_0841;iat_vr;59.952613454329125;
7;SCHLIMM;negativ;q;0;15;15;10;q;1;0.6014534000000253;001;ASSA97;2019_Nov_28_0841;iat_vr;59.952613454329125;
7;SCHWACH;negativ;q;0;16;16;14;q;1;1.2135443000000237;001;ASSA97;2019_Nov_28_0841;iat_vr;59.952613454329125;
7;NEGATIV;negativ;q;0;17;17;12;q;1;0.593252600000028;001;ASSA97;2019_Nov_28_0841;iat_vr;59.952613454329125;
7;GUT;positiv;p;0;18;18;19;p;1;0.5807669000000146;001;ASSA97;2019_Nov_28_0841;iat_vr;59.952613454329125;
7;TIER;Natur;p;0;19;19;3;p;1;0.5767614000000094;001;ASSA97;2019_Nov_28_0841;iat_vr;59.952613454329125;
7;KLEIDER;Gemacht;q;1;0;20;7;q;1;0.668911899999955;001;ASSA97;2019_Nov_28_0841;iat_vr;59.952613454329125;
7;NEGATIV;negativ;q;1;1;21;12;q;1;0.6149608000000057;001;ASSA97;2019_Nov_28_0841;iat_vr;59.952613454329125;
7;STADT;Gemacht;q;1;2;22;6;q;1;0.7813226999999756;001;ASSA97;2019_Nov_28_0841;iat_vr;59.952613454329125;
7;AUSGEZEICHNET;positiv;p;1;3;23;15;p;1;0.6233152000000359;001;ASSA97;2019_Nov_28_0841;iat_vr;59.952613454329125;
7;STEIN;Natur;p;1;4;24;4;p;1;0.6686239;001;ASSA97;2019_Nov_28_0841;iat_vr;59.952613454329125;
7;GEBÄUDE;Gemacht;q;1;5;25;5;q;1;0.5652376999999547;001;ASSA97;2019_Nov_28_0841;iat_vr;59.952613454329125;
7;SCHLECHT;negativ;q;1;6;26;11;q;1;0.6455741999999987;001;ASSA97;2019_Nov_28_0841;iat_vr;59.952613454329125;
7;GUT;positiv;p;1;7;27;19;p;1;0.6024714999999787;001;ASSA97;2019_Nov_28_0841;iat_vr;59.952613454329125;
7;LAMPE;Gemacht;q;1;8;28;9;q;1;0.7338469000000032;001;ASSA97;2019_Nov_28_0841;iat_vr;59.952613454329125;
7;SCHWACH;negativ;q;1;9;29;14;q;1;0.8671628999999825;001;ASSA97;2019_Nov_28_0841;iat_vr;59.952613454329125;
7;BLUME;Natur;p;1;10;30;2;p;1;0.6337616000000139;001;ASSA97;2019_Nov_28_0841;iat_vr;59.952613454329125;
7;BAUM;Natur;p;1;11;31;0;p;1;0.6835513000000333;001;ASSA97;2019_Nov_28_0841;iat_vr;59.952613454329125;
7;WASSER;Natur;p;1;12;32;1;p;1;0.533907299999953;001;ASSA97;2019_Nov_28_0841;iat_vr;59.952613454329125;
7;COMPUTER;Gemacht;q;1;13;33;8;q;1;0.5004516000000194;001;ASSA97;2019_Nov_28_0841;iat_vr;59.952613454329125;
7;POSITIV;positiv;p;1;14;34;18;p;1;0.5840653000000202;001;ASSA97;2019_Nov_28_0841;iat_vr;59.952613454329125;
7;HERVORRAGEND;positiv;p;1;15;35;17;p;1;0.5340982999999824;001;ASSA97;2019_Nov_28_0841;iat_vr;59.952613454329125;
7;EINWANDFREI;positiv;p;1;16;36;16;p;1;0.7004289999999855;001;ASSA97;2019_Nov_28_0841;iat_vr;59.952613454329125;
7;SCHÄDLICH;negativ;q;1;17;37;13;q;1;0.6167795999999726;001;ASSA97;2019_Nov_28_0841;iat_vr;59.952613454329125;
7;TIER;Natur;p;1;18;38;3;p;1;0.6333900000000199;001;ASSA97;2019_Nov_28_0841;iat_vr;59.952613454329125;
7;SCHLIMM;negativ;q;1;19;39;10;p;0;0.6168921999999952;001;ASSA97;2019_Nov_28_0841;iat_vr;59.952613454329125;
;;;;;;;;;;;001;ASSA97;2019_Nov_28_0841;iat_vr;59.952613454329125;
