Block;Word;Category;CorrResp;trials.thisRepN;trials.thisTrialN;trials.thisN;trials.thisIndex;key_resp_2.keys;key_resp_2.corr;key_resp_2.rt;session;participant;date;expName;frameRate;
1;BLUME;Natur;q;0;0;0;2;q;1;0.764151799998217;002;ASSS99;2019_Nov_28_1316;iat_vr;60.74540688789711;
1;BAUM;Natur;q;0;1;1;0;q;1;0.5939732000006188;002;ASSS99;2019_Nov_28_1316;iat_vr;60.74540688789711;
1;LAMPE;Gemacht;p;0;2;2;9;p;1;0.5954129000019748;002;ASSS99;2019_Nov_28_1316;iat_vr;60.74540688789711;
1;KLEIDER;Gemacht;p;0;3;3;7;p;1;0.6218510999970022;002;ASSS99;2019_Nov_28_1316;iat_vr;60.74540688789711;
1;GEBÄUDE;Gemacht;p;0;4;4;5;p;1;0.643530199999077;002;ASSS99;2019_Nov_28_1316;iat_vr;60.74540688789711;
1;STADT;Gemacht;p;0;5;5;6;p;1;0.5356667999985802;002;ASSS99;2019_Nov_28_1316;iat_vr;60.74540688789711;
1;WASSER;Natur;q;0;6;6;1;q;1;0.6266909000005398;002;ASSS99;2019_Nov_28_1316;iat_vr;60.74540688789711;
1;COMPUTER;Gemacht;p;0;7;7;8;p;1;0.5881164999991597;002;ASSS99;2019_Nov_28_1316;iat_vr;60.74540688789711;
1;STEIN;Natur;q;0;8;8;4;q;1;0.7946420000007492;002;ASSS99;2019_Nov_28_1316;iat_vr;60.74540688789711;
1;TIER;Natur;q;0;9;9;3;q;1;0.8190720999991754;002;ASSS99;2019_Nov_28_1316;iat_vr;60.74540688789711;
1;STADT;Gemacht;p;1;0;10;6;p;1;0.5978021999981138;002;ASSS99;2019_Nov_28_1316;iat_vr;60.74540688789711;
1;COMPUTER;Gemacht;p;1;1;11;8;p;1;0.6650236000023142;002;ASSS99;2019_Nov_28_1316;iat_vr;60.74540688789711;
1;GEBÄUDE;Gemacht;p;1;2;12;5;p;1;0.6626054000007571;002;ASSS99;2019_Nov_28_1316;iat_vr;60.74540688789711;
1;TIER;Natur;q;1;3;13;3;q;1;0.6654629000004206;002;ASSS99;2019_Nov_28_1316;iat_vr;60.74540688789711;
1;KLEIDER;Gemacht;p;1;4;14;7;p;1;0.6688309000019217;002;ASSS99;2019_Nov_28_1316;iat_vr;60.74540688789711;
1;BLUME;Natur;q;1;5;15;2;q;1;0.5811260000009497;002;ASSS99;2019_Nov_28_1316;iat_vr;60.74540688789711;
1;WASSER;Natur;q;1;6;16;1;q;1;0.5317254999972647;002;ASSS99;2019_Nov_28_1316;iat_vr;60.74540688789711;
1;STEIN;Natur;q;1;7;17;4;q;1;0.5977362999983598;002;ASSS99;2019_Nov_28_1316;iat_vr;60.74540688789711;
1;BAUM;Natur;q;1;8;18;0;q;1;0.6820196000007854;002;ASSS99;2019_Nov_28_1316;iat_vr;60.74540688789711;
1;LAMPE;Gemacht;p;1;9;19;9;p;1;0.5640341999969678;002;ASSS99;2019_Nov_28_1316;iat_vr;60.74540688789711;
;;;;;;;;;;;002;ASSS99;2019_Nov_28_1316;iat_vr;60.74540688789711;
2;HERVORRAGEND;positiv;p;0;0;0;7;p;1;0.8633049999989453;002;ASSS99;2019_Nov_28_1316;iat_vr;60.74540688789711;
2;SCHLIMM;negativ;q;0;1;1;0;q;1;0.6480314999971597;002;ASSS99;2019_Nov_28_1316;iat_vr;60.74540688789711;
2;SCHÄDLICH;negativ;q;0;2;2;3;q;1;0.6435277999989921;002;ASSS99;2019_Nov_28_1316;iat_vr;60.74540688789711;
2;NEGATIV;negativ;q;0;3;3;2;q;1;0.6676084999999148;002;ASSS99;2019_Nov_28_1316;iat_vr;60.74540688789711;
2;POSITIV;positiv;p;0;4;4;8;p;1;0.5812198999992688;002;ASSS99;2019_Nov_28_1316;iat_vr;60.74540688789711;
2;SCHWACH;negativ;q;0;5;5;4;q;1;0.6467631999985315;002;ASSS99;2019_Nov_28_1316;iat_vr;60.74540688789711;
2;GUT;positiv;p;0;6;6;9;p;1;0.6194217999982357;002;ASSS99;2019_Nov_28_1316;iat_vr;60.74540688789711;
2;AUSGEZEICHNET;positiv;p;0;7;7;5;p;1;0.5524197999984608;002;ASSS99;2019_Nov_28_1316;iat_vr;60.74540688789711;
2;SCHLECHT;negativ;q;0;8;8;1;q;1;0.895658800000092;002;ASSS99;2019_Nov_28_1316;iat_vr;60.74540688789711;
2;EINWANDFREI;positiv;p;0;9;9;6;p;1;0.6421261000032246;002;ASSS99;2019_Nov_28_1316;iat_vr;60.74540688789711;
2;EINWANDFREI;positiv;p;1;0;10;6;p;1;0.6176401999982772;002;ASSS99;2019_Nov_28_1316;iat_vr;60.74540688789711;
2;SCHWACH;negativ;q;1;1;11;4;q;1;0.6356262000008428;002;ASSS99;2019_Nov_28_1316;iat_vr;60.74540688789711;
2;AUSGEZEICHNET;positiv;p;1;2;12;5;p;1;0.5949907000031089;002;ASSS99;2019_Nov_28_1316;iat_vr;60.74540688789711;
2;SCHLIMM;negativ;q;1;3;13;0;q;1;0.6463886999990791;002;ASSS99;2019_Nov_28_1316;iat_vr;60.74540688789711;
2;SCHLECHT;negativ;q;1;4;14;1;q;1;0.7443561000000045;002;ASSS99;2019_Nov_28_1316;iat_vr;60.74540688789711;
2;NEGATIV;negativ;q;1;5;15;2;q;1;0.652535600002011;002;ASSS99;2019_Nov_28_1316;iat_vr;60.74540688789711;
2;HERVORRAGEND;positiv;p;1;6;16;7;p;1;0.5964652000002388;002;ASSS99;2019_Nov_28_1316;iat_vr;60.74540688789711;
2;SCHÄDLICH;negativ;q;1;7;17;3;q;1;0.5932743999983359;002;ASSS99;2019_Nov_28_1316;iat_vr;60.74540688789711;
2;POSITIV;positiv;p;1;8;18;8;p;1;0.49761559999751626;002;ASSS99;2019_Nov_28_1316;iat_vr;60.74540688789711;
2;GUT;positiv;p;1;9;19;9;p;1;0.5655520999971486;002;ASSS99;2019_Nov_28_1316;iat_vr;60.74540688789711;
;;;;;;;;;;;002;ASSS99;2019_Nov_28_1316;iat_vr;60.74540688789711;
3;COMPUTER;Gemacht;p;0;0;0;18;p;1;1.7927908999990905;002;ASSS99;2019_Nov_28_1316;iat_vr;60.74540688789711;
3;GUT;positiv;p;0;1;1;9;p;1;1.3980277000009664;002;ASSS99;2019_Nov_28_1316;iat_vr;60.74540688789711;
3;NEGATIV;negativ;q;0;2;2;2;q;1;1.1125934000010602;002;ASSS99;2019_Nov_28_1316;iat_vr;60.74540688789711;
3;WASSER;Natur;q;0;3;3;11;q;1;0.7685048000021197;002;ASSS99;2019_Nov_28_1316;iat_vr;60.74540688789711;
3;KLEIDER;Gemacht;p;0;4;4;17;p;1;0.7469737000028545;002;ASSS99;2019_Nov_28_1316;iat_vr;60.74540688789711;
3;AUSGEZEICHNET;positiv;p;0;5;5;5;p;1;0.9292496000016399;002;ASSS99;2019_Nov_28_1316;iat_vr;60.74540688789711;
3;SCHWACH;negativ;q;0;6;6;4;q;1;1.1445526999996218;002;ASSS99;2019_Nov_28_1316;iat_vr;60.74540688789711;
3;EINWANDFREI;positiv;p;0;7;7;6;p;1;0.7690618999986327;002;ASSS99;2019_Nov_28_1316;iat_vr;60.74540688789711;
3;HERVORRAGEND;positiv;p;0;8;8;7;p;1;1.0637305999989621;002;ASSS99;2019_Nov_28_1316;iat_vr;60.74540688789711;
3;SCHLIMM;negativ;q;0;9;9;0;q;1;0.8637802999983251;002;ASSS99;2019_Nov_28_1316;iat_vr;60.74540688789711;
3;TIER;Natur;q;0;10;10;13;q;1;0.5848304999999527;002;ASSS99;2019_Nov_28_1316;iat_vr;60.74540688789711;
3;SCHLECHT;negativ;q;0;11;11;1;q;1;0.8492842999985442;002;ASSS99;2019_Nov_28_1316;iat_vr;60.74540688789711;
3;BLUME;Natur;q;0;12;12;12;q;1;0.7154566999997769;002;ASSS99;2019_Nov_28_1316;iat_vr;60.74540688789711;
3;POSITIV;positiv;p;0;13;13;8;p;1;0.8852045999992697;002;ASSS99;2019_Nov_28_1316;iat_vr;60.74540688789711;
3;GEBÄUDE;Gemacht;p;0;14;14;15;p;1;0.6315101999971375;002;ASSS99;2019_Nov_28_1316;iat_vr;60.74540688789711;
3;STADT;Gemacht;p;0;15;15;16;p;1;0.6686129999980039;002;ASSS99;2019_Nov_28_1316;iat_vr;60.74540688789711;
3;SCHÄDLICH;negativ;q;0;16;16;3;q;1;1.2314960000003339;002;ASSS99;2019_Nov_28_1316;iat_vr;60.74540688789711;
3;BAUM;Natur;q;0;17;17;10;q;1;0.7964906000015617;002;ASSS99;2019_Nov_28_1316;iat_vr;60.74540688789711;
3;LAMPE;Gemacht;p;0;18;18;19;p;1;1.3970387000008486;002;ASSS99;2019_Nov_28_1316;iat_vr;60.74540688789711;
3;STEIN;Natur;q;0;19;19;14;q;1;0.7135489000029338;002;ASSS99;2019_Nov_28_1316;iat_vr;60.74540688789711;
;;;;;;;;;;;002;ASSS99;2019_Nov_28_1316;iat_vr;60.74540688789711;
4;BAUM;Natur;q;0;0;0;10;q;1;1.855777600001602;002;ASSS99;2019_Nov_28_1316;iat_vr;60.74540688789711;
4;EINWANDFREI;positiv;p;0;1;1;6;p;1;0.878264399998443;002;ASSS99;2019_Nov_28_1316;iat_vr;60.74540688789711;
4;STEIN;Natur;q;0;2;2;14;q;1;1.9645963000002666;002;ASSS99;2019_Nov_28_1316;iat_vr;60.74540688789711;
4;GUT;positiv;p;0;3;3;9;p;1;1.2310179999985849;002;ASSS99;2019_Nov_28_1316;iat_vr;60.74540688789711;
4;TIER;Natur;q;0;4;4;13;q;1;0.8846669999984442;002;ASSS99;2019_Nov_28_1316;iat_vr;60.74540688789711;
4;SCHLIMM;negativ;q;0;5;5;0;q;1;1.0615345000005618;002;ASSS99;2019_Nov_28_1316;iat_vr;60.74540688789711;
4;HERVORRAGEND;positiv;p;0;6;6;7;p;1;0.6131801000010455;002;ASSS99;2019_Nov_28_1316;iat_vr;60.74540688789711;
4;STADT;Gemacht;p;0;7;7;16;p;1;0.7493548999991617;002;ASSS99;2019_Nov_28_1316;iat_vr;60.74540688789711;
4;GEBÄUDE;Gemacht;p;0;8;8;15;p;1;0.5471856999974989;002;ASSS99;2019_Nov_28_1316;iat_vr;60.74540688789711;
4;COMPUTER;Gemacht;p;0;9;9;18;p;1;0.5311437000018486;002;ASSS99;2019_Nov_28_1316;iat_vr;60.74540688789711;
4;SCHWACH;negativ;q;0;10;10;4;q;1;1.114406799999415;002;ASSS99;2019_Nov_28_1316;iat_vr;60.74540688789711;
4;WASSER;Natur;q;0;11;11;11;q;1;0.5462383999984013;002;ASSS99;2019_Nov_28_1316;iat_vr;60.74540688789711;
4;AUSGEZEICHNET;positiv;p;0;12;12;5;p;1;0.5945663999991666;002;ASSS99;2019_Nov_28_1316;iat_vr;60.74540688789711;
4;KLEIDER;Gemacht;p;0;13;13;17;p;1;0.6628219000012905;002;ASSS99;2019_Nov_28_1316;iat_vr;60.74540688789711;
4;SCHLECHT;negativ;q;0;14;14;1;q;1;0.9458279999998922;002;ASSS99;2019_Nov_28_1316;iat_vr;60.74540688789711;
4;NEGATIV;negativ;q;0;15;15;2;q;1;0.6019273999991128;002;ASSS99;2019_Nov_28_1316;iat_vr;60.74540688789711;
4;BLUME;Natur;q;0;16;16;12;q;1;0.5958433999985573;002;ASSS99;2019_Nov_28_1316;iat_vr;60.74540688789711;
4;LAMPE;Gemacht;p;0;17;17;19;p;1;0.5819910999998683;002;ASSS99;2019_Nov_28_1316;iat_vr;60.74540688789711;
4;SCHÄDLICH;negativ;q;0;18;18;3;q;1;0.7671040000022913;002;ASSS99;2019_Nov_28_1316;iat_vr;60.74540688789711;
4;POSITIV;positiv;p;0;19;19;8;p;1;0.7175271999985853;002;ASSS99;2019_Nov_28_1316;iat_vr;60.74540688789711;
4;COMPUTER;Gemacht;p;1;0;20;18;p;1;0.6333377000009932;002;ASSS99;2019_Nov_28_1316;iat_vr;60.74540688789711;
4;SCHLIMM;negativ;q;1;1;21;0;q;1;0.5884656999987783;002;ASSS99;2019_Nov_28_1316;iat_vr;60.74540688789711;
4;POSITIV;positiv;p;1;2;22;8;p;1;0.6376129999989644;002;ASSS99;2019_Nov_28_1316;iat_vr;60.74540688789711;
4;KLEIDER;Gemacht;p;1;3;23;17;p;1;0.602358699998149;002;ASSS99;2019_Nov_28_1316;iat_vr;60.74540688789711;
4;SCHÄDLICH;negativ;q;1;4;24;3;q;1;0.6125143999997817;002;ASSS99;2019_Nov_28_1316;iat_vr;60.74540688789711;
4;GEBÄUDE;Gemacht;p;1;5;25;15;p;1;0.6824697000010929;002;ASSS99;2019_Nov_28_1316;iat_vr;60.74540688789711;
4;NEGATIV;negativ;q;1;6;26;2;q;1;0.7474551000013889;002;ASSS99;2019_Nov_28_1316;iat_vr;60.74540688789711;
4;SCHLECHT;negativ;q;1;7;27;1;q;1;0.6980536999981268;002;ASSS99;2019_Nov_28_1316;iat_vr;60.74540688789711;
4;AUSGEZEICHNET;positiv;p;1;8;28;5;p;1;0.6291778999984672;002;ASSS99;2019_Nov_28_1316;iat_vr;60.74540688789711;
4;TIER;Natur;q;1;9;29;13;q;1;0.6692538000024797;002;ASSS99;2019_Nov_28_1316;iat_vr;60.74540688789711;
4;WASSER;Natur;q;1;10;30;11;q;1;1.2960427000034542;002;ASSS99;2019_Nov_28_1316;iat_vr;60.74540688789711;
4;EINWANDFREI;positiv;p;1;11;31;6;p;1;0.6333790999997291;002;ASSS99;2019_Nov_28_1316;iat_vr;60.74540688789711;
4;GUT;positiv;p;1;12;32;9;q;0;0.531907600001432;002;ASSS99;2019_Nov_28_1316;iat_vr;60.74540688789711;
4;LAMPE;Gemacht;p;1;13;33;19;p;1;0.8359676000000036;002;ASSS99;2019_Nov_28_1316;iat_vr;60.74540688789711;
4;SCHWACH;negativ;q;1;14;34;4;q;1;1.4256956999997783;002;ASSS99;2019_Nov_28_1316;iat_vr;60.74540688789711;
4;BLUME;Natur;q;1;15;35;12;q;1;0.7089780999995128;002;ASSS99;2019_Nov_28_1316;iat_vr;60.74540688789711;
4;HERVORRAGEND;positiv;p;1;16;36;7;p;1;1.0958468999997422;002;ASSS99;2019_Nov_28_1316;iat_vr;60.74540688789711;
4;STEIN;Natur;q;1;17;37;14;q;1;0.6320850999982213;002;ASSS99;2019_Nov_28_1316;iat_vr;60.74540688789711;
4;STADT;Gemacht;p;1;18;38;16;p;1;0.7022340000003169;002;ASSS99;2019_Nov_28_1316;iat_vr;60.74540688789711;
4;BAUM;Natur;q;1;19;39;10;q;1;0.7815521000011358;002;ASSS99;2019_Nov_28_1316;iat_vr;60.74540688789711;
;;;;;;;;;;;002;ASSS99;2019_Nov_28_1316;iat_vr;60.74540688789711;
5;LAMPE;Gemacht;q;0;0;0;9;q;1;1.187104000000545;002;ASSS99;2019_Nov_28_1316;iat_vr;60.74540688789711;
5;KLEIDER;Gemacht;q;0;1;1;7;q;1;0.7992392999985896;002;ASSS99;2019_Nov_28_1316;iat_vr;60.74540688789711;
5;STEIN;Natur;p;0;2;2;4;p;1;0.5310166000017489;002;ASSS99;2019_Nov_28_1316;iat_vr;60.74540688789711;
5;STADT;Gemacht;q;0;3;3;6;q;1;0.7481048999979976;002;ASSS99;2019_Nov_28_1316;iat_vr;60.74540688789711;
5;BLUME;Natur;p;0;4;4;2;p;1;0.729575900000782;002;ASSS99;2019_Nov_28_1316;iat_vr;60.74540688789711;
5;WASSER;Natur;p;0;5;5;1;p;1;0.5141198000019358;002;ASSS99;2019_Nov_28_1316;iat_vr;60.74540688789711;
5;TIER;Natur;p;0;6;6;3;p;1;0.6315963000015472;002;ASSS99;2019_Nov_28_1316;iat_vr;60.74540688789711;
5;COMPUTER;Gemacht;q;0;7;7;8;q;1;0.5126716000013403;002;ASSS99;2019_Nov_28_1316;iat_vr;60.74540688789711;
5;BAUM;Natur;p;0;8;8;0;p;1;0.6318740999995498;002;ASSS99;2019_Nov_28_1316;iat_vr;60.74540688789711;
5;GEBÄUDE;Gemacht;q;0;9;9;5;q;1;0.6479872999989311;002;ASSS99;2019_Nov_28_1316;iat_vr;60.74540688789711;
5;TIER;Natur;p;1;0;10;3;p;1;0.6819964999995136;002;ASSS99;2019_Nov_28_1316;iat_vr;60.74540688789711;
5;LAMPE;Gemacht;q;1;1;11;9;q;1;0.6807349999980943;002;ASSS99;2019_Nov_28_1316;iat_vr;60.74540688789711;
5;BAUM;Natur;p;1;2;12;0;p;1;0.631490699997812;002;ASSS99;2019_Nov_28_1316;iat_vr;60.74540688789711;
5;KLEIDER;Gemacht;q;1;3;13;7;q;1;0.6519103999999061;002;ASSS99;2019_Nov_28_1316;iat_vr;60.74540688789711;
5;COMPUTER;Gemacht;q;1;4;14;8;q;1;0.5311762000019371;002;ASSS99;2019_Nov_28_1316;iat_vr;60.74540688789711;
5;WASSER;Natur;p;1;5;15;1;p;1;0.5638891000016883;002;ASSS99;2019_Nov_28_1316;iat_vr;60.74540688789711;
5;GEBÄUDE;Gemacht;q;1;6;16;5;q;1;0.5356204000017897;002;ASSS99;2019_Nov_28_1316;iat_vr;60.74540688789711;
5;STEIN;Natur;p;1;7;17;4;p;1;0.517689899999823;002;ASSS99;2019_Nov_28_1316;iat_vr;60.74540688789711;
5;BLUME;Natur;p;1;8;18;2;p;1;0.5148936000005051;002;ASSS99;2019_Nov_28_1316;iat_vr;60.74540688789711;
5;STADT;Gemacht;q;1;9;19;6;q;1;0.46523529999831226;002;ASSS99;2019_Nov_28_1316;iat_vr;60.74540688789711;
;;;;;;;;;;;002;ASSS99;2019_Nov_28_1316;iat_vr;60.74540688789711;
6;BAUM;Natur;p;0;0;0;0;p;1;1.749440699997649;002;ASSS99;2019_Nov_28_1316;iat_vr;60.74540688789711;
6;SCHWACH;negativ;q;0;1;1;14;q;1;1.2014086000017414;002;ASSS99;2019_Nov_28_1316;iat_vr;60.74540688789711;
6;COMPUTER;Gemacht;q;0;2;2;8;q;1;0.6673606999975163;002;ASSS99;2019_Nov_28_1316;iat_vr;60.74540688789711;
6;AUSGEZEICHNET;positiv;p;0;3;3;15;p;1;0.6844153999991249;002;ASSS99;2019_Nov_28_1316;iat_vr;60.74540688789711;
6;SCHÄDLICH;negativ;q;0;4;4;13;q;1;0.7609216999990167;002;ASSS99;2019_Nov_28_1316;iat_vr;60.74540688789711;
6;SCHLIMM;negativ;q;0;5;5;10;q;1;1.101112499996816;002;ASSS99;2019_Nov_28_1316;iat_vr;60.74540688789711;
6;WASSER;Natur;p;0;6;6;1;p;1;0.6689141999995627;002;ASSS99;2019_Nov_28_1316;iat_vr;60.74540688789711;
6;BLUME;Natur;p;0;7;7;2;p;1;0.6814580999998725;002;ASSS99;2019_Nov_28_1316;iat_vr;60.74540688789711;
6;STADT;Gemacht;q;0;8;8;6;q;1;0.6507998999986739;002;ASSS99;2019_Nov_28_1316;iat_vr;60.74540688789711;
6;TIER;Natur;p;0;9;9;3;p;1;0.6813354999976582;002;ASSS99;2019_Nov_28_1316;iat_vr;60.74540688789711;
6;NEGATIV;negativ;q;0;10;10;12;q;1;0.6984520000005432;002;ASSS99;2019_Nov_28_1316;iat_vr;60.74540688789711;
6;SCHLECHT;negativ;q;0;11;11;11;q;1;0.6102678000024753;002;ASSS99;2019_Nov_28_1316;iat_vr;60.74540688789711;
6;POSITIV;positiv;p;0;12;12;18;p;1;0.6636102000011306;002;ASSS99;2019_Nov_28_1316;iat_vr;60.74540688789711;
6;HERVORRAGEND;positiv;p;0;13;13;17;p;1;0.5110772000007273;002;ASSS99;2019_Nov_28_1316;iat_vr;60.74540688789711;
6;EINWANDFREI;positiv;p;0;14;14;16;p;1;0.7343202000010933;002;ASSS99;2019_Nov_28_1316;iat_vr;60.74540688789711;
6;LAMPE;Gemacht;q;0;15;15;9;q;1;0.6516893999978493;002;ASSS99;2019_Nov_28_1316;iat_vr;60.74540688789711;
6;KLEIDER;Gemacht;q;0;16;16;7;q;1;0.5473574999996345;002;ASSS99;2019_Nov_28_1316;iat_vr;60.74540688789711;
6;GUT;positiv;p;0;17;17;19;p;1;0.5654842000003555;002;ASSS99;2019_Nov_28_1316;iat_vr;60.74540688789711;
6;STEIN;Natur;p;0;18;18;4;p;1;0.8799064000013459;002;ASSS99;2019_Nov_28_1316;iat_vr;60.74540688789711;
6;GEBÄUDE;Gemacht;q;0;19;19;5;q;1;0.6133607999981905;002;ASSS99;2019_Nov_28_1316;iat_vr;60.74540688789711;
;;;;;;;;;;;002;ASSS99;2019_Nov_28_1316;iat_vr;60.74540688789711;
7;GUT;positiv;p;0;0;0;19;p;1;0.9272832000024209;002;ASSS99;2019_Nov_28_1316;iat_vr;60.74540688789711;
7;BLUME;Natur;p;0;1;1;2;p;1;0.5683573999995133;002;ASSS99;2019_Nov_28_1316;iat_vr;60.74540688789711;
7;GEBÄUDE;Gemacht;q;0;2;2;5;q;1;0.5970707000014954;002;ASSS99;2019_Nov_28_1316;iat_vr;60.74540688789711;
7;COMPUTER;Gemacht;q;0;3;3;8;q;1;0.6606247999989137;002;ASSS99;2019_Nov_28_1316;iat_vr;60.74540688789711;
7;SCHLECHT;negativ;q;0;4;4;11;q;1;0.6520027000005939;002;ASSS99;2019_Nov_28_1316;iat_vr;60.74540688789711;
7;NEGATIV;negativ;q;0;5;5;12;q;1;0.6128365000004123;002;ASSS99;2019_Nov_28_1316;iat_vr;60.74540688789711;
7;POSITIV;positiv;p;0;6;6;18;p;1;0.5835928999986209;002;ASSS99;2019_Nov_28_1316;iat_vr;60.74540688789711;
7;STADT;Gemacht;q;0;7;7;6;q;1;0.6357722000029753;002;ASSS99;2019_Nov_28_1316;iat_vr;60.74540688789711;
7;BAUM;Natur;p;0;8;8;0;p;1;0.5484496999997646;002;ASSS99;2019_Nov_28_1316;iat_vr;60.74540688789711;
7;STEIN;Natur;p;0;9;9;4;p;1;0.6473492000004626;002;ASSS99;2019_Nov_28_1316;iat_vr;60.74540688789711;
7;HERVORRAGEND;positiv;p;0;10;10;17;p;1;0.5942792999994708;002;ASSS99;2019_Nov_28_1316;iat_vr;60.74540688789711;
7;EINWANDFREI;positiv;p;0;11;11;16;p;1;0.49481179999929736;002;ASSS99;2019_Nov_28_1316;iat_vr;60.74540688789711;
7;SCHÄDLICH;negativ;q;0;12;12;13;q;1;0.5835667999999714;002;ASSS99;2019_Nov_28_1316;iat_vr;60.74540688789711;
7;AUSGEZEICHNET;positiv;p;0;13;13;15;p;1;0.643608000002132;002;ASSS99;2019_Nov_28_1316;iat_vr;60.74540688789711;
7;SCHWACH;negativ;q;0;14;14;14;q;1;0.6994271000003209;002;ASSS99;2019_Nov_28_1316;iat_vr;60.74540688789711;
7;LAMPE;Gemacht;q;0;15;15;9;q;1;0.5666907000013452;002;ASSS99;2019_Nov_28_1316;iat_vr;60.74540688789711;
7;TIER;Natur;p;0;16;16;3;p;1;0.5665334000004805;002;ASSS99;2019_Nov_28_1316;iat_vr;60.74540688789711;
7;WASSER;Natur;p;0;17;17;1;p;1;0.5158590000028198;002;ASSS99;2019_Nov_28_1316;iat_vr;60.74540688789711;
7;KLEIDER;Gemacht;q;0;18;18;7;q;1;0.5510021999980381;002;ASSS99;2019_Nov_28_1316;iat_vr;60.74540688789711;
7;SCHLIMM;negativ;q;0;19;19;10;q;1;0.8968375000004016;002;ASSS99;2019_Nov_28_1316;iat_vr;60.74540688789711;
7;GEBÄUDE;Gemacht;q;1;0;20;5;q;1;0.598086100002547;002;ASSS99;2019_Nov_28_1316;iat_vr;60.74540688789711;
7;SCHWACH;negativ;q;1;1;21;14;q;1;0.5355765999993309;002;ASSS99;2019_Nov_28_1316;iat_vr;60.74540688789711;
7;EINWANDFREI;positiv;p;1;2;22;16;p;1;0.5951110000023618;002;ASSS99;2019_Nov_28_1316;iat_vr;60.74540688789711;
7;POSITIV;positiv;p;1;3;23;18;p;1;0.5998073000009754;002;ASSS99;2019_Nov_28_1316;iat_vr;60.74540688789711;
7;STADT;Gemacht;q;1;4;24;6;q;1;1.1500764999982493;002;ASSS99;2019_Nov_28_1316;iat_vr;60.74540688789711;
7;BAUM;Natur;p;1;5;25;0;p;1;0.5503143000023556;002;ASSS99;2019_Nov_28_1316;iat_vr;60.74540688789711;
7;GUT;positiv;p;1;6;26;19;p;1;1.5189293999974325;002;ASSS99;2019_Nov_28_1316;iat_vr;60.74540688789711;
7;STEIN;Natur;p;1;7;27;4;q;0;0.6475876999975299;002;ASSS99;2019_Nov_28_1316;iat_vr;60.74540688789711;
7;COMPUTER;Gemacht;q;1;8;28;8;q;1;0.9664330999985395;002;ASSS99;2019_Nov_28_1316;iat_vr;60.74540688789711;
7;NEGATIV;negativ;q;1;9;29;12;q;1;1.0196218999990379;002;ASSS99;2019_Nov_28_1316;iat_vr;60.74540688789711;
7;HERVORRAGEND;positiv;p;1;10;30;17;p;1;0.8123924999999872;002;ASSS99;2019_Nov_28_1316;iat_vr;60.74540688789711;
7;WASSER;Natur;p;1;11;31;1;p;1;0.51360460000069;002;ASSS99;2019_Nov_28_1316;iat_vr;60.74540688789711;
7;KLEIDER;Gemacht;q;1;12;32;7;q;1;0.8446979999971518;002;ASSS99;2019_Nov_28_1316;iat_vr;60.74540688789711;
7;AUSGEZEICHNET;positiv;p;1;13;33;15;p;1;1.0001664999981585;002;ASSS99;2019_Nov_28_1316;iat_vr;60.74540688789711;
7;TIER;Natur;p;1;14;34;3;p;1;0.48503729999720235;002;ASSS99;2019_Nov_28_1316;iat_vr;60.74540688789711;
7;BLUME;Natur;p;1;15;35;2;p;1;0.5140357000018412;002;ASSS99;2019_Nov_28_1316;iat_vr;60.74540688789711;
7;LAMPE;Gemacht;q;1;16;36;9;q;1;0.696373599999788;002;ASSS99;2019_Nov_28_1316;iat_vr;60.74540688789711;
7;SCHLECHT;negativ;q;1;17;37;11;q;1;0.7336589000005915;002;ASSS99;2019_Nov_28_1316;iat_vr;60.74540688789711;
7;SCHLIMM;negativ;q;1;18;38;10;q;1;0.5008888000011211;002;ASSS99;2019_Nov_28_1316;iat_vr;60.74540688789711;
7;SCHÄDLICH;negativ;q;1;19;39;13;q;1;0.7788795999986178;002;ASSS99;2019_Nov_28_1316;iat_vr;60.74540688789711;
;;;;;;;;;;;002;ASSS99;2019_Nov_28_1316;iat_vr;60.74540688789711;
