Block;Word;Category;CorrResp;trials.thisRepN;trials.thisTrialN;trials.thisN;trials.thisIndex;key_resp_2.keys;key_resp_2.corr;key_resp_2.rt;session;participant;date;expName;frameRate;
1;WASSER;Natur;q;0;0;0;1;q;1;1.4864911999993637;001;FSAN68;2019_Dec_19_1527;iat_vr;59.82457042952503;
1;STEIN;Natur;q;0;1;1;4;q;1;0.9578678000016225;001;FSAN68;2019_Dec_19_1527;iat_vr;59.82457042952503;
1;TIER;Natur;q;0;2;2;3;q;1;0.9654329000004509;001;FSAN68;2019_Dec_19_1527;iat_vr;59.82457042952503;
1;BLUME;Natur;q;0;3;3;2;q;1;0.9554793000006612;001;FSAN68;2019_Dec_19_1527;iat_vr;59.82457042952503;
1;BAUM;Natur;q;0;4;4;0;q;1;0.8160351999995328;001;FSAN68;2019_Dec_19_1527;iat_vr;59.82457042952503;
1;LAMPE;Gemacht;p;0;5;5;9;p;1;0.9457168999997521;001;FSAN68;2019_Dec_19_1527;iat_vr;59.82457042952503;
1;COMPUTER;Gemacht;p;0;6;6;8;p;1;0.6898980000005395;001;FSAN68;2019_Dec_19_1527;iat_vr;59.82457042952503;
1;GEBÄUDE;Gemacht;p;0;7;7;5;p;1;0.7054697999992641;001;FSAN68;2019_Dec_19_1527;iat_vr;59.82457042952503;
1;KLEIDER;Gemacht;p;0;8;8;7;p;1;0.8105007000012847;001;FSAN68;2019_Dec_19_1527;iat_vr;59.82457042952503;
1;STADT;Gemacht;p;0;9;9;6;p;1;0.7482890999999654;001;FSAN68;2019_Dec_19_1527;iat_vr;59.82457042952503;
1;GEBÄUDE;Gemacht;p;1;0;10;5;p;1;0.7192715000001044;001;FSAN68;2019_Dec_19_1527;iat_vr;59.82457042952503;
1;WASSER;Natur;q;1;1;11;1;q;1;0.7116949999999633;001;FSAN68;2019_Dec_19_1527;iat_vr;59.82457042952503;
1;BAUM;Natur;q;1;2;12;0;q;1;0.6982868000013696;001;FSAN68;2019_Dec_19_1527;iat_vr;59.82457042952503;
1;LAMPE;Gemacht;p;1;3;13;9;p;1;0.7988675999986299;001;FSAN68;2019_Dec_19_1527;iat_vr;59.82457042952503;
1;COMPUTER;Gemacht;p;1;4;14;8;p;1;0.711742100000265;001;FSAN68;2019_Dec_19_1527;iat_vr;59.82457042952503;
1;TIER;Natur;q;1;5;15;3;q;1;0.7158349999990605;001;FSAN68;2019_Dec_19_1527;iat_vr;59.82457042952503;
1;BLUME;Natur;q;1;6;16;2;q;1;1.2352090000022145;001;FSAN68;2019_Dec_19_1527;iat_vr;59.82457042952503;
1;KLEIDER;Gemacht;p;1;7;17;7;p;1;0.8660811000008835;001;FSAN68;2019_Dec_19_1527;iat_vr;59.82457042952503;
1;STADT;Gemacht;p;1;8;18;6;p;1;0.8458470000005036;001;FSAN68;2019_Dec_19_1527;iat_vr;59.82457042952503;
1;STEIN;Natur;q;1;9;19;4;q;1;0.9302533999980369;001;FSAN68;2019_Dec_19_1527;iat_vr;59.82457042952503;
;;;;;;;;;;;001;FSAN68;2019_Dec_19_1527;iat_vr;59.82457042952503;
2;SCHLIMM;negativ;q;0;0;0;0;q;1;3.8416092000006756;001;FSAN68;2019_Dec_19_1527;iat_vr;59.82457042952503;
2;SCHÄDLICH;negativ;q;0;1;1;3;q;1;1.0297522000000754;001;FSAN68;2019_Dec_19_1527;iat_vr;59.82457042952503;
2;POSITIV;positiv;p;0;2;2;8;p;1;0.808434300000954;001;FSAN68;2019_Dec_19_1527;iat_vr;59.82457042952503;
2;AUSGEZEICHNET;positiv;p;0;3;3;5;p;1;1.3723796999984188;001;FSAN68;2019_Dec_19_1527;iat_vr;59.82457042952503;
2;NEGATIV;negativ;q;0;4;4;2;q;1;1.6637917000007292;001;FSAN68;2019_Dec_19_1527;iat_vr;59.82457042952503;
2;SCHLECHT;negativ;q;0;5;5;1;q;1;1.2305618999998842;001;FSAN68;2019_Dec_19_1527;iat_vr;59.82457042952503;
2;GUT;positiv;p;0;6;6;9;p;1;0.6983517000007851;001;FSAN68;2019_Dec_19_1527;iat_vr;59.82457042952503;
2;SCHWACH;negativ;q;0;7;7;4;q;1;2.3121871999974246;001;FSAN68;2019_Dec_19_1527;iat_vr;59.82457042952503;
2;HERVORRAGEND;positiv;p;0;8;8;7;p;1;0.9128492000018014;001;FSAN68;2019_Dec_19_1527;iat_vr;59.82457042952503;
2;EINWANDFREI;positiv;p;0;9;9;6;p;1;1.441956200000277;001;FSAN68;2019_Dec_19_1527;iat_vr;59.82457042952503;
2;HERVORRAGEND;positiv;p;1;0;10;7;p;1;0.9620976000005612;001;FSAN68;2019_Dec_19_1527;iat_vr;59.82457042952503;
2;SCHWACH;negativ;q;1;1;11;4;q;1;0.6456290999994962;001;FSAN68;2019_Dec_19_1527;iat_vr;59.82457042952503;
2;EINWANDFREI;positiv;p;1;2;12;6;p;1;1.9129494999979215;001;FSAN68;2019_Dec_19_1527;iat_vr;59.82457042952503;
2;SCHLECHT;negativ;q;1;3;13;1;q;1;1.1447703999983787;001;FSAN68;2019_Dec_19_1527;iat_vr;59.82457042952503;
2;POSITIV;positiv;p;1;4;14;8;p;1;0.9651234000011755;001;FSAN68;2019_Dec_19_1527;iat_vr;59.82457042952503;
2;AUSGEZEICHNET;positiv;p;1;5;15;5;p;1;0.7938283000003139;001;FSAN68;2019_Dec_19_1527;iat_vr;59.82457042952503;
2;NEGATIV;negativ;q;1;6;16;2;q;1;0.8976050999990548;001;FSAN68;2019_Dec_19_1527;iat_vr;59.82457042952503;
2;SCHLIMM;negativ;q;1;7;17;0;q;1;0.9305902000014612;001;FSAN68;2019_Dec_19_1527;iat_vr;59.82457042952503;
2;SCHÄDLICH;negativ;q;1;8;18;3;q;1;0.9283066999996663;001;FSAN68;2019_Dec_19_1527;iat_vr;59.82457042952503;
2;GUT;positiv;p;1;9;19;9;p;1;0.7500297000005958;001;FSAN68;2019_Dec_19_1527;iat_vr;59.82457042952503;
;;;;;;;;;;;001;FSAN68;2019_Dec_19_1527;iat_vr;59.82457042952503;
3;EINWANDFREI;positiv;p;0;0;0;6;p;1;1.8823135999991791;001;FSAN68;2019_Dec_19_1527;iat_vr;59.82457042952503;
3;HERVORRAGEND;positiv;p;0;1;1;7;p;1;1.1099044000002323;001;FSAN68;2019_Dec_19_1527;iat_vr;59.82457042952503;
3;STADT;Gemacht;p;0;2;2;16;p;1;1.418909399999393;001;FSAN68;2019_Dec_19_1527;iat_vr;59.82457042952503;
3;BLUME;Natur;q;0;3;3;12;q;1;0.9482702999994217;001;FSAN68;2019_Dec_19_1527;iat_vr;59.82457042952503;
3;SCHWACH;negativ;q;0;4;4;4;q;1;1.2294982999992499;001;FSAN68;2019_Dec_19_1527;iat_vr;59.82457042952503;
3;TIER;Natur;q;0;5;5;13;q;1;0.9150941999978386;001;FSAN68;2019_Dec_19_1527;iat_vr;59.82457042952503;
3;GUT;positiv;p;0;6;6;9;p;1;1.948595400001068;001;FSAN68;2019_Dec_19_1527;iat_vr;59.82457042952503;
3;LAMPE;Gemacht;p;0;7;7;19;p;1;1.2153452999991714;001;FSAN68;2019_Dec_19_1527;iat_vr;59.82457042952503;
3;GEBÄUDE;Gemacht;p;0;8;8;15;p;1;1.8188353999976243;001;FSAN68;2019_Dec_19_1527;iat_vr;59.82457042952503;
3;SCHLECHT;negativ;q;0;9;9;1;q;1;1.4139671999982966;001;FSAN68;2019_Dec_19_1527;iat_vr;59.82457042952503;
3;AUSGEZEICHNET;positiv;p;0;10;10;5;p;1;1.4116566999982751;001;FSAN68;2019_Dec_19_1527;iat_vr;59.82457042952503;
3;STEIN;Natur;q;0;11;11;14;q;1;2.9974075999998604;001;FSAN68;2019_Dec_19_1527;iat_vr;59.82457042952503;
3;BAUM;Natur;q;0;12;12;10;q;1;0.7823346000004676;001;FSAN68;2019_Dec_19_1527;iat_vr;59.82457042952503;
3;SCHLIMM;negativ;q;0;13;13;0;q;1;0.9979456999972172;001;FSAN68;2019_Dec_19_1527;iat_vr;59.82457042952503;
3;KLEIDER;Gemacht;p;0;14;14;17;p;1;1.5319624000003387;001;FSAN68;2019_Dec_19_1527;iat_vr;59.82457042952503;
3;COMPUTER;Gemacht;p;0;15;15;18;p;1;1.1139120000007097;001;FSAN68;2019_Dec_19_1527;iat_vr;59.82457042952503;
3;NEGATIV;negativ;q;0;16;16;2;q;1;1.1468988000015088;001;FSAN68;2019_Dec_19_1527;iat_vr;59.82457042952503;
3;WASSER;Natur;q;0;17;17;11;q;1;0.9148444999991625;001;FSAN68;2019_Dec_19_1527;iat_vr;59.82457042952503;
3;POSITIV;positiv;p;0;18;18;8;p;1;1.496673899997404;001;FSAN68;2019_Dec_19_1527;iat_vr;59.82457042952503;
3;SCHÄDLICH;negativ;q;0;19;19;3;q;1;1.1017136000009486;001;FSAN68;2019_Dec_19_1527;iat_vr;59.82457042952503;
;;;;;;;;;;;001;FSAN68;2019_Dec_19_1527;iat_vr;59.82457042952503;
4;SCHLIMM;negativ;q;0;0;0;0;q;1;3.183089399997698;001;FSAN68;2019_Dec_19_1527;iat_vr;59.82457042952503;
4;SCHÄDLICH;negativ;q;0;1;1;3;q;1;0.9441522999986773;001;FSAN68;2019_Dec_19_1527;iat_vr;59.82457042952503;
4;TIER;Natur;q;0;2;2;13;q;1;0.9490434999970603;001;FSAN68;2019_Dec_19_1527;iat_vr;59.82457042952503;
4;SCHLECHT;negativ;q;0;3;3;1;q;1;0.8782799000000523;001;FSAN68;2019_Dec_19_1527;iat_vr;59.82457042952503;
4;KLEIDER;Gemacht;p;0;4;4;17;p;1;0.9111928000020271;001;FSAN68;2019_Dec_19_1527;iat_vr;59.82457042952503;
4;NEGATIV;negativ;q;0;5;5;2;q;1;0.8622963999987405;001;FSAN68;2019_Dec_19_1527;iat_vr;59.82457042952503;
4;BLUME;Natur;q;0;6;6;12;q;1;0.9948797000033665;001;FSAN68;2019_Dec_19_1527;iat_vr;59.82457042952503;
4;POSITIV;positiv;p;0;7;7;8;p;1;1.4807220000002417;001;FSAN68;2019_Dec_19_1527;iat_vr;59.82457042952503;
4;GEBÄUDE;Gemacht;p;0;8;8;15;p;1;1.0477338999990025;001;FSAN68;2019_Dec_19_1527;iat_vr;59.82457042952503;
4;HERVORRAGEND;positiv;p;0;9;9;7;p;1;1.0122823999990942;001;FSAN68;2019_Dec_19_1527;iat_vr;59.82457042952503;
4;EINWANDFREI;positiv;p;0;10;10;6;p;1;1.661046900000656;001;FSAN68;2019_Dec_19_1527;iat_vr;59.82457042952503;
4;COMPUTER;Gemacht;p;0;11;11;18;p;1;0.6803359000005003;001;FSAN68;2019_Dec_19_1527;iat_vr;59.82457042952503;
4;GUT;positiv;p;0;12;12;9;p;1;0.5663947000030021;001;FSAN68;2019_Dec_19_1527;iat_vr;59.82457042952503;
4;STEIN;Natur;q;0;13;13;14;q;1;0.7677523999991536;001;FSAN68;2019_Dec_19_1527;iat_vr;59.82457042952503;
4;AUSGEZEICHNET;positiv;p;0;14;14;5;p;1;0.7083347999978287;001;FSAN68;2019_Dec_19_1527;iat_vr;59.82457042952503;
4;SCHWACH;negativ;q;0;15;15;4;q;1;1.3950652999992599;001;FSAN68;2019_Dec_19_1527;iat_vr;59.82457042952503;
4;WASSER;Natur;q;0;16;16;11;q;1;1.0650648999981058;001;FSAN68;2019_Dec_19_1527;iat_vr;59.82457042952503;
4;BAUM;Natur;q;0;17;17;10;q;1;0.6812151000012818;001;FSAN68;2019_Dec_19_1527;iat_vr;59.82457042952503;
4;STADT;Gemacht;p;0;18;18;16;p;1;1.2473276999990048;001;FSAN68;2019_Dec_19_1527;iat_vr;59.82457042952503;
4;LAMPE;Gemacht;p;0;19;19;19;p;1;0.981673199999932;001;FSAN68;2019_Dec_19_1527;iat_vr;59.82457042952503;
4;HERVORRAGEND;positiv;p;1;0;20;7;p;1;0.7098270999995293;001;FSAN68;2019_Dec_19_1527;iat_vr;59.82457042952503;
4;BAUM;Natur;q;1;1;21;10;q;1;1.298566600002232;001;FSAN68;2019_Dec_19_1527;iat_vr;59.82457042952503;
4;LAMPE;Gemacht;p;1;2;22;19;p;1;0.7482832999994571;001;FSAN68;2019_Dec_19_1527;iat_vr;59.82457042952503;
4;COMPUTER;Gemacht;p;1;3;23;18;p;1;0.7137782999998308;001;FSAN68;2019_Dec_19_1527;iat_vr;59.82457042952503;
4;TIER;Natur;q;1;4;24;13;q;1;0.698603800003184;001;FSAN68;2019_Dec_19_1527;iat_vr;59.82457042952503;
4;BLUME;Natur;q;1;5;25;12;q;1;0.8153822999993281;001;FSAN68;2019_Dec_19_1527;iat_vr;59.82457042952503;
4;NEGATIV;negativ;q;1;6;26;2;q;1;0.6543922000018938;001;FSAN68;2019_Dec_19_1527;iat_vr;59.82457042952503;
4;SCHÄDLICH;negativ;q;1;7;27;3;q;1;1.729739000002155;001;FSAN68;2019_Dec_19_1527;iat_vr;59.82457042952503;
4;KLEIDER;Gemacht;p;1;8;28;17;p;1;0.7810134999999718;001;FSAN68;2019_Dec_19_1527;iat_vr;59.82457042952503;
4;STADT;Gemacht;p;1;9;29;16;p;1;0.6493598000015481;001;FSAN68;2019_Dec_19_1527;iat_vr;59.82457042952503;
4;SCHLECHT;negativ;q;1;10;30;1;q;1;0.8985850999997638;001;FSAN68;2019_Dec_19_1527;iat_vr;59.82457042952503;
4;AUSGEZEICHNET;positiv;p;1;11;31;5;p;1;1.195618400000967;001;FSAN68;2019_Dec_19_1527;iat_vr;59.82457042952503;
4;WASSER;Natur;q;1;12;32;11;q;1;0.6629597999999532;001;FSAN68;2019_Dec_19_1527;iat_vr;59.82457042952503;
4;GEBÄUDE;Gemacht;p;1;13;33;15;p;1;1.0473144000025059;001;FSAN68;2019_Dec_19_1527;iat_vr;59.82457042952503;
4;GUT;positiv;p;1;14;34;9;p;1;1.199332799998956;001;FSAN68;2019_Dec_19_1527;iat_vr;59.82457042952503;
4;STEIN;Natur;q;1;15;35;14;q;1;0.7308935000000929;001;FSAN68;2019_Dec_19_1527;iat_vr;59.82457042952503;
4;SCHWACH;negativ;q;1;16;36;4;q;1;1.0471422000009625;001;FSAN68;2019_Dec_19_1527;iat_vr;59.82457042952503;
4;POSITIV;positiv;p;1;17;37;8;p;1;0.8599078999977792;001;FSAN68;2019_Dec_19_1527;iat_vr;59.82457042952503;
4;EINWANDFREI;positiv;p;1;18;38;6;p;1;1.3124358000022767;001;FSAN68;2019_Dec_19_1527;iat_vr;59.82457042952503;
4;SCHLIMM;negativ;q;1;19;39;0;q;1;0.7149400999987847;001;FSAN68;2019_Dec_19_1527;iat_vr;59.82457042952503;
;;;;;;;;;;;001;FSAN68;2019_Dec_19_1527;iat_vr;59.82457042952503;
5;BAUM;Natur;p;0;0;0;0;p;1;2.8185728000025847;001;FSAN68;2019_Dec_19_1527;iat_vr;59.82457042952503;
5;COMPUTER;Gemacht;q;0;1;1;8;q;1;0.9622140999999829;001;FSAN68;2019_Dec_19_1527;iat_vr;59.82457042952503;
5;LAMPE;Gemacht;q;0;2;2;9;q;1;1.5136371000007784;001;FSAN68;2019_Dec_19_1527;iat_vr;59.82457042952503;
5;BLUME;Natur;p;0;3;3;2;p;1;1.3963440999978047;001;FSAN68;2019_Dec_19_1527;iat_vr;59.82457042952503;
5;STEIN;Natur;p;0;4;4;4;p;1;0.8302554999972926;001;FSAN68;2019_Dec_19_1527;iat_vr;59.82457042952503;
5;KLEIDER;Gemacht;q;0;5;5;7;q;1;0.9430108000015025;001;FSAN68;2019_Dec_19_1527;iat_vr;59.82457042952503;
5;GEBÄUDE;Gemacht;q;0;6;6;5;q;1;0.9011219000021811;001;FSAN68;2019_Dec_19_1527;iat_vr;59.82457042952503;
5;STADT;Gemacht;q;0;7;7;6;q;1;0.7810277999997197;001;FSAN68;2019_Dec_19_1527;iat_vr;59.82457042952503;
5;WASSER;Natur;p;0;8;8;1;p;1;0.9686755999973684;001;FSAN68;2019_Dec_19_1527;iat_vr;59.82457042952503;
5;TIER;Natur;p;0;9;9;3;p;1;3.701678900000843;001;FSAN68;2019_Dec_19_1527;iat_vr;59.82457042952503;
5;KLEIDER;Gemacht;q;1;0;10;7;q;1;1.0308156999999483;001;FSAN68;2019_Dec_19_1527;iat_vr;59.82457042952503;
5;STEIN;Natur;p;1;1;11;4;p;1;0.9811007999996946;001;FSAN68;2019_Dec_19_1527;iat_vr;59.82457042952503;
5;WASSER;Natur;p;1;2;12;1;p;1;0.8803316000012273;001;FSAN68;2019_Dec_19_1527;iat_vr;59.82457042952503;
5;TIER;Natur;p;1;3;13;3;p;1;0.6991266000004543;001;FSAN68;2019_Dec_19_1527;iat_vr;59.82457042952503;
5;COMPUTER;Gemacht;q;1;4;14;8;q;1;2.1310733999998774;001;FSAN68;2019_Dec_19_1527;iat_vr;59.82457042952503;
5;LAMPE;Gemacht;q;1;5;15;9;q;1;0.6487560000023223;001;FSAN68;2019_Dec_19_1527;iat_vr;59.82457042952503;
5;BLUME;Natur;p;1;6;16;2;p;1;1.9650411999973585;001;FSAN68;2019_Dec_19_1527;iat_vr;59.82457042952503;
5;STADT;Gemacht;q;1;7;17;6;q;1;0.7490360000010696;001;FSAN68;2019_Dec_19_1527;iat_vr;59.82457042952503;
5;GEBÄUDE;Gemacht;q;1;8;18;5;q;1;0.7500853999990795;001;FSAN68;2019_Dec_19_1527;iat_vr;59.82457042952503;
5;BAUM;Natur;p;1;9;19;0;p;1;2.064991800001735;001;FSAN68;2019_Dec_19_1527;iat_vr;59.82457042952503;
;;;;;;;;;;;001;FSAN68;2019_Dec_19_1527;iat_vr;59.82457042952503;
6;STADT;Gemacht;q;0;0;0;6;q;1;1.336250199998176;001;FSAN68;2019_Dec_19_1527;iat_vr;59.82457042952503;
6;GUT;positiv;p;0;1;1;19;p;1;1.833441999999195;001;FSAN68;2019_Dec_19_1527;iat_vr;59.82457042952503;
6;KLEIDER;Gemacht;q;0;2;2;7;q;1;0.8474167000022135;001;FSAN68;2019_Dec_19_1527;iat_vr;59.82457042952503;
6;COMPUTER;Gemacht;q;0;3;3;8;q;1;0.8145388000011735;001;FSAN68;2019_Dec_19_1527;iat_vr;59.82457042952503;
6;SCHLECHT;negativ;q;0;4;4;11;q;1;1.1133731000008993;001;FSAN68;2019_Dec_19_1527;iat_vr;59.82457042952503;
6;GEBÄUDE;Gemacht;q;0;5;5;5;q;1;1.8966153000001214;001;FSAN68;2019_Dec_19_1527;iat_vr;59.82457042952503;
6;BAUM;Natur;p;0;6;6;0;p;1;0.6642657000011241;001;FSAN68;2019_Dec_19_1527;iat_vr;59.82457042952503;
6;POSITIV;positiv;p;0;7;7;18;p;1;0.6023081999992428;001;FSAN68;2019_Dec_19_1527;iat_vr;59.82457042952503;
6;STEIN;Natur;p;0;8;8;4;p;1;0.8829569000008632;001;FSAN68;2019_Dec_19_1527;iat_vr;59.82457042952503;
6;AUSGEZEICHNET;positiv;p;0;9;9;15;p;1;0.812639499999932;001;FSAN68;2019_Dec_19_1527;iat_vr;59.82457042952503;
6;HERVORRAGEND;positiv;p;0;10;10;17;p;1;0.6436890000004496;001;FSAN68;2019_Dec_19_1527;iat_vr;59.82457042952503;
6;LAMPE;Gemacht;q;0;11;11;9;q;1;1.0799240000014834;001;FSAN68;2019_Dec_19_1527;iat_vr;59.82457042952503;
6;SCHÄDLICH;negativ;q;0;12;12;13;q;1;0.9140319999969506;001;FSAN68;2019_Dec_19_1527;iat_vr;59.82457042952503;
6;SCHLIMM;negativ;q;0;13;13;10;q;1;0.7984388000004401;001;FSAN68;2019_Dec_19_1527;iat_vr;59.82457042952503;
6;EINWANDFREI;positiv;p;0;14;14;16;p;1;0.9121825000001991;001;FSAN68;2019_Dec_19_1527;iat_vr;59.82457042952503;
6;SCHWACH;negativ;q;0;15;15;14;q;1;1.0636035999996238;001;FSAN68;2019_Dec_19_1527;iat_vr;59.82457042952503;
6;TIER;Natur;p;0;16;16;3;p;1;1.2816036000003805;001;FSAN68;2019_Dec_19_1527;iat_vr;59.82457042952503;
6;BLUME;Natur;p;0;17;17;2;p;1;0.6145780000006198;001;FSAN68;2019_Dec_19_1527;iat_vr;59.82457042952503;
6;WASSER;Natur;p;0;18;18;1;p;1;0.5786728000020958;001;FSAN68;2019_Dec_19_1527;iat_vr;59.82457042952503;
6;NEGATIV;negativ;q;0;19;19;12;q;1;0.9977115999972739;001;FSAN68;2019_Dec_19_1527;iat_vr;59.82457042952503;
;;;;;;;;;;;001;FSAN68;2019_Dec_19_1527;iat_vr;59.82457042952503;
7;EINWANDFREI;positiv;p;0;0;0;16;p;1;3.9309917999999016;001;FSAN68;2019_Dec_19_1527;iat_vr;59.82457042952503;
7;BAUM;Natur;p;0;1;1;0;p;1;0.649109199999657;001;FSAN68;2019_Dec_19_1527;iat_vr;59.82457042952503;
7;HERVORRAGEND;positiv;p;0;2;2;17;p;1;1.0013211000004958;001;FSAN68;2019_Dec_19_1527;iat_vr;59.82457042952503;
7;NEGATIV;negativ;q;0;3;3;12;q;1;0.9834499999997206;001;FSAN68;2019_Dec_19_1527;iat_vr;59.82457042952503;
7;BLUME;Natur;p;0;4;4;2;p;1;1.3355660999986867;001;FSAN68;2019_Dec_19_1527;iat_vr;59.82457042952503;
7;COMPUTER;Gemacht;q;0;5;5;8;q;1;0.7974272999999812;001;FSAN68;2019_Dec_19_1527;iat_vr;59.82457042952503;
7;AUSGEZEICHNET;positiv;p;0;6;6;15;p;1;0.825636100002157;001;FSAN68;2019_Dec_19_1527;iat_vr;59.82457042952503;
7;STADT;Gemacht;q;0;7;7;6;q;1;0.9651560999991489;001;FSAN68;2019_Dec_19_1527;iat_vr;59.82457042952503;
7;STEIN;Natur;p;0;8;8;4;p;1;0.6984216999990167;001;FSAN68;2019_Dec_19_1527;iat_vr;59.82457042952503;
7;SCHLECHT;negativ;q;0;9;9;11;q;1;0.9683110000005399;001;FSAN68;2019_Dec_19_1527;iat_vr;59.82457042952503;
7;KLEIDER;Gemacht;q;0;10;10;7;q;1;0.8524706000025617;001;FSAN68;2019_Dec_19_1527;iat_vr;59.82457042952503;
7;SCHWACH;negativ;q;0;11;11;14;q;1;1.4022229000001971;001;FSAN68;2019_Dec_19_1527;iat_vr;59.82457042952503;
7;GUT;positiv;p;0;12;12;19;p;1;0.5979213999999047;001;FSAN68;2019_Dec_19_1527;iat_vr;59.82457042952503;
7;POSITIV;positiv;p;0;13;13;18;p;1;0.5810899999996764;001;FSAN68;2019_Dec_19_1527;iat_vr;59.82457042952503;
7;WASSER;Natur;p;0;14;14;1;p;1;1.2456196999992244;001;FSAN68;2019_Dec_19_1527;iat_vr;59.82457042952503;
7;SCHÄDLICH;negativ;q;0;15;15;13;q;1;0.7961154000004171;001;FSAN68;2019_Dec_19_1527;iat_vr;59.82457042952503;
7;GEBÄUDE;Gemacht;q;0;16;16;5;q;1;0.9150388000016392;001;FSAN68;2019_Dec_19_1527;iat_vr;59.82457042952503;
7;TIER;Natur;p;0;17;17;3;p;1;0.7021926999987045;001;FSAN68;2019_Dec_19_1527;iat_vr;59.82457042952503;
7;LAMPE;Gemacht;q;0;18;18;9;q;1;0.7818358000004082;001;FSAN68;2019_Dec_19_1527;iat_vr;59.82457042952503;
7;SCHLIMM;negativ;q;0;19;19;10;q;1;1.8986425999974017;001;FSAN68;2019_Dec_19_1527;iat_vr;59.82457042952503;
7;SCHLECHT;negativ;q;1;0;20;11;q;1;1.4810982000017248;001;FSAN68;2019_Dec_19_1527;iat_vr;59.82457042952503;
7;COMPUTER;Gemacht;q;1;1;21;8;q;1;0.7468281000001298;001;FSAN68;2019_Dec_19_1527;iat_vr;59.82457042952503;
7;BAUM;Natur;p;1;2;22;0;p;1;1.111504699998477;001;FSAN68;2019_Dec_19_1527;iat_vr;59.82457042952503;
7;WASSER;Natur;p;1;3;23;1;p;1;0.5152477000010549;001;FSAN68;2019_Dec_19_1527;iat_vr;59.82457042952503;
7;SCHÄDLICH;negativ;q;1;4;24;13;q;1;1.2099247000005562;001;FSAN68;2019_Dec_19_1527;iat_vr;59.82457042952503;
7;BLUME;Natur;p;1;5;25;2;p;1;0.6020695000006526;001;FSAN68;2019_Dec_19_1527;iat_vr;59.82457042952503;
7;LAMPE;Gemacht;q;1;6;26;9;q;1;1.530300400001579;001;FSAN68;2019_Dec_19_1527;iat_vr;59.82457042952503;
7;STADT;Gemacht;q;1;7;27;6;q;1;0.7632592000009026;001;FSAN68;2019_Dec_19_1527;iat_vr;59.82457042952503;
7;HERVORRAGEND;positiv;p;1;8;28;17;p;1;0.6951915999998164;001;FSAN68;2019_Dec_19_1527;iat_vr;59.82457042952503;
7;SCHLIMM;negativ;q;1;9;29;10;q;1;0.7444700999985798;001;FSAN68;2019_Dec_19_1527;iat_vr;59.82457042952503;
7;GUT;positiv;p;1;10;30;19;p;1;0.6288438999981736;001;FSAN68;2019_Dec_19_1527;iat_vr;59.82457042952503;
7;NEGATIV;negativ;q;1;11;31;12;q;1;0.6640973000030499;001;FSAN68;2019_Dec_19_1527;iat_vr;59.82457042952503;
7;POSITIV;positiv;p;1;12;32;18;p;1;0.6808927999991283;001;FSAN68;2019_Dec_19_1527;iat_vr;59.82457042952503;
7;STEIN;Natur;p;1;13;33;4;p;1;0.8144105999999738;001;FSAN68;2019_Dec_19_1527;iat_vr;59.82457042952503;
7;KLEIDER;Gemacht;q;1;14;34;7;q;1;0.7619121999996423;001;FSAN68;2019_Dec_19_1527;iat_vr;59.82457042952503;
7;TIER;Natur;p;1;15;35;3;p;1;0.9151683000018238;001;FSAN68;2019_Dec_19_1527;iat_vr;59.82457042952503;
7;GEBÄUDE;Gemacht;q;1;16;36;5;q;1;0.9478400000007241;001;FSAN68;2019_Dec_19_1527;iat_vr;59.82457042952503;
7;EINWANDFREI;positiv;p;1;17;37;16;p;1;1.3106387999978324;001;FSAN68;2019_Dec_19_1527;iat_vr;59.82457042952503;
7;SCHWACH;negativ;q;1;18;38;14;q;1;0.8137597000022652;001;FSAN68;2019_Dec_19_1527;iat_vr;59.82457042952503;
7;AUSGEZEICHNET;positiv;p;1;19;39;15;p;1;0.777001400001609;001;FSAN68;2019_Dec_19_1527;iat_vr;59.82457042952503;
;;;;;;;;;;;001;FSAN68;2019_Dec_19_1527;iat_vr;59.82457042952503;
