Block;Word;Category;CorrResp;trials.thisRepN;trials.thisTrialN;trials.thisN;trials.thisIndex;key_resp_2.keys;key_resp_2.corr;key_resp_2.rt;session;participant;date;expName;frameRate;
1;COMPUTER;Gemacht;p;0;0;0;8;p;1;1.4318665999999212;002;FSCS91;2019_Dec_21_1635;iat_vr;60.53913734149065;
1;GEBÄUDE;Gemacht;p;0;1;1;5;p;1;0.635849700000108;002;FSCS91;2019_Dec_21_1635;iat_vr;60.53913734149065;
1;KLEIDER;Gemacht;p;0;2;2;7;p;1;0.6964706999997361;002;FSCS91;2019_Dec_21_1635;iat_vr;60.53913734149065;
1;STADT;Gemacht;p;0;3;3;6;p;1;0.5084351999994396;002;FSCS91;2019_Dec_21_1635;iat_vr;60.53913734149065;
1;BAUM;Natur;q;0;4;4;0;q;1;0.5816378999998051;002;FSCS91;2019_Dec_21_1635;iat_vr;60.53913734149065;
1;LAMPE;Gemacht;p;0;5;5;9;p;1;0.5647269000000961;002;FSCS91;2019_Dec_21_1635;iat_vr;60.53913734149065;
1;BLUME;Natur;q;0;6;6;2;q;1;0.602491700000428;002;FSCS91;2019_Dec_21_1635;iat_vr;60.53913734149065;
1;WASSER;Natur;q;0;7;7;1;q;1;0.47886319999997795;002;FSCS91;2019_Dec_21_1635;iat_vr;60.53913734149065;
1;TIER;Natur;q;0;8;8;3;q;1;0.44966870000007475;002;FSCS91;2019_Dec_21_1635;iat_vr;60.53913734149065;
1;STEIN;Natur;q;0;9;9;4;q;1;0.5140589000002365;002;FSCS91;2019_Dec_21_1635;iat_vr;60.53913734149065;
1;KLEIDER;Gemacht;p;1;0;10;7;p;1;0.5125806000005468;002;FSCS91;2019_Dec_21_1635;iat_vr;60.53913734149065;
1;COMPUTER;Gemacht;p;1;1;11;8;p;1;0.5299170999996932;002;FSCS91;2019_Dec_21_1635;iat_vr;60.53913734149065;
1;BLUME;Natur;q;1;2;12;2;q;1;0.530168400000548;002;FSCS91;2019_Dec_21_1635;iat_vr;60.53913734149065;
1;WASSER;Natur;q;1;3;13;1;p;0;0.4823744999994233;002;FSCS91;2019_Dec_21_1635;iat_vr;60.53913734149065;
1;STEIN;Natur;q;1;4;14;4;q;1;0.6342898000002606;002;FSCS91;2019_Dec_21_1635;iat_vr;60.53913734149065;
1;STADT;Gemacht;p;1;5;15;6;p;1;0.634342000000288;002;FSCS91;2019_Dec_21_1635;iat_vr;60.53913734149065;
1;GEBÄUDE;Gemacht;p;1;6;16;5;p;1;0.5810207999993509;002;FSCS91;2019_Dec_21_1635;iat_vr;60.53913734149065;
1;LAMPE;Gemacht;p;1;7;17;9;p;1;0.5466722999999547;002;FSCS91;2019_Dec_21_1635;iat_vr;60.53913734149065;
1;TIER;Natur;q;1;8;18;3;q;1;1.1321484999998574;002;FSCS91;2019_Dec_21_1635;iat_vr;60.53913734149065;
1;BAUM;Natur;q;1;9;19;0;q;1;0.5985282999999981;002;FSCS91;2019_Dec_21_1635;iat_vr;60.53913734149065;
;;;;;;;;;;;002;FSCS91;2019_Dec_21_1635;iat_vr;60.53913734149065;
2;NEGATIV;negativ;q;0;0;0;2;q;1;0.8055725000003804;002;FSCS91;2019_Dec_21_1635;iat_vr;60.53913734149065;
2;HERVORRAGEND;positiv;p;0;1;1;7;p;1;0.6348619000000326;002;FSCS91;2019_Dec_21_1635;iat_vr;60.53913734149065;
2;AUSGEZEICHNET;positiv;p;0;2;2;5;p;1;0.48630060000050435;002;FSCS91;2019_Dec_21_1635;iat_vr;60.53913734149065;
2;SCHÄDLICH;negativ;q;0;3;3;3;q;1;0.7346422999999049;002;FSCS91;2019_Dec_21_1635;iat_vr;60.53913734149065;
2;EINWANDFREI;positiv;p;0;4;4;6;p;1;0.6799753000004785;002;FSCS91;2019_Dec_21_1635;iat_vr;60.53913734149065;
2;GUT;positiv;p;0;5;5;9;p;1;0.5486185000008845;002;FSCS91;2019_Dec_21_1635;iat_vr;60.53913734149065;
2;SCHLECHT;negativ;q;0;6;6;1;q;1;0.8649261000000479;002;FSCS91;2019_Dec_21_1635;iat_vr;60.53913734149065;
2;SCHWACH;negativ;q;0;7;7;4;q;1;0.6637980000004973;002;FSCS91;2019_Dec_21_1635;iat_vr;60.53913734149065;
2;SCHLIMM;negativ;q;0;8;8;0;q;1;0.7151708000001236;002;FSCS91;2019_Dec_21_1635;iat_vr;60.53913734149065;
2;POSITIV;positiv;p;0;9;9;8;p;1;0.7018002000004344;002;FSCS91;2019_Dec_21_1635;iat_vr;60.53913734149065;
2;HERVORRAGEND;positiv;p;1;0;10;7;p;1;0.7985491999997976;002;FSCS91;2019_Dec_21_1635;iat_vr;60.53913734149065;
2;SCHLECHT;negativ;q;1;1;11;1;q;1;0.7479562000007718;002;FSCS91;2019_Dec_21_1635;iat_vr;60.53913734149065;
2;SCHLIMM;negativ;q;1;2;12;0;q;1;0.5809640999996191;002;FSCS91;2019_Dec_21_1635;iat_vr;60.53913734149065;
2;NEGATIV;negativ;q;1;3;13;2;q;1;0.4922196999996231;002;FSCS91;2019_Dec_21_1635;iat_vr;60.53913734149065;
2;EINWANDFREI;positiv;p;1;4;14;6;p;1;0.6929766000002928;002;FSCS91;2019_Dec_21_1635;iat_vr;60.53913734149065;
2;SCHÄDLICH;negativ;q;1;5;15;3;q;1;0.6292599999997037;002;FSCS91;2019_Dec_21_1635;iat_vr;60.53913734149065;
2;AUSGEZEICHNET;positiv;p;1;6;16;5;p;1;0.6665751000000455;002;FSCS91;2019_Dec_21_1635;iat_vr;60.53913734149065;
2;POSITIV;positiv;p;1;7;17;8;p;1;0.5981460000002699;002;FSCS91;2019_Dec_21_1635;iat_vr;60.53913734149065;
2;GUT;positiv;p;1;8;18;9;p;1;0.5820697999997719;002;FSCS91;2019_Dec_21_1635;iat_vr;60.53913734149065;
2;SCHWACH;negativ;q;1;9;19;4;p;0;0.7291709999999512;002;FSCS91;2019_Dec_21_1635;iat_vr;60.53913734149065;
;;;;;;;;;;;002;FSCS91;2019_Dec_21_1635;iat_vr;60.53913734149065;
3;TIER;Natur;q;0;0;0;13;q;1;1.3076804000002085;002;FSCS91;2019_Dec_21_1635;iat_vr;60.53913734149065;
3;NEGATIV;negativ;q;0;1;1;2;q;1;1.1013483999995515;002;FSCS91;2019_Dec_21_1635;iat_vr;60.53913734149065;
3;LAMPE;Gemacht;p;0;2;2;19;p;1;1.5980374999999185;002;FSCS91;2019_Dec_21_1635;iat_vr;60.53913734149065;
3;SCHWACH;negativ;q;0;3;3;4;q;1;0.9022210000002815;002;FSCS91;2019_Dec_21_1635;iat_vr;60.53913734149065;
3;BAUM;Natur;q;0;4;4;10;q;1;1.434932199999821;002;FSCS91;2019_Dec_21_1635;iat_vr;60.53913734149065;
3;SCHÄDLICH;negativ;q;0;5;5;3;q;1;1.1471535000000586;002;FSCS91;2019_Dec_21_1635;iat_vr;60.53913734149065;
3;AUSGEZEICHNET;positiv;p;0;6;6;5;p;1;0.8616890000002968;002;FSCS91;2019_Dec_21_1635;iat_vr;60.53913734149065;
3;STADT;Gemacht;p;0;7;7;16;p;1;1.131881400000566;002;FSCS91;2019_Dec_21_1635;iat_vr;60.53913734149065;
3;COMPUTER;Gemacht;p;0;8;8;18;p;1;0.8802688000005219;002;FSCS91;2019_Dec_21_1635;iat_vr;60.53913734149065;
3;GUT;positiv;p;0;9;9;9;p;1;1.6020770000004632;002;FSCS91;2019_Dec_21_1635;iat_vr;60.53913734149065;
3;GEBÄUDE;Gemacht;p;0;10;10;15;p;1;1.3355290999998033;002;FSCS91;2019_Dec_21_1635;iat_vr;60.53913734149065;
3;WASSER;Natur;q;0;11;11;11;q;1;0.8295189000000391;002;FSCS91;2019_Dec_21_1635;iat_vr;60.53913734149065;
3;EINWANDFREI;positiv;p;0;12;12;6;p;1;1.4305097999995269;002;FSCS91;2019_Dec_21_1635;iat_vr;60.53913734149065;
3;STEIN;Natur;q;0;13;13;14;q;1;0.8332728000004863;002;FSCS91;2019_Dec_21_1635;iat_vr;60.53913734149065;
3;SCHLECHT;negativ;q;0;14;14;1;q;1;0.7147697999998854;002;FSCS91;2019_Dec_21_1635;iat_vr;60.53913734149065;
3;SCHLIMM;negativ;q;0;15;15;0;q;1;0.4799286999996184;002;FSCS91;2019_Dec_21_1635;iat_vr;60.53913734149065;
3;HERVORRAGEND;positiv;p;0;16;16;7;p;1;0.9170647999999346;002;FSCS91;2019_Dec_21_1635;iat_vr;60.53913734149065;
3;BLUME;Natur;q;0;17;17;12;q;1;1.2357872000002317;002;FSCS91;2019_Dec_21_1635;iat_vr;60.53913734149065;
3;KLEIDER;Gemacht;p;0;18;18;17;p;1;1.0313915999995515;002;FSCS91;2019_Dec_21_1635;iat_vr;60.53913734149065;
3;POSITIV;positiv;p;0;19;19;8;p;1;1.113335800000641;002;FSCS91;2019_Dec_21_1635;iat_vr;60.53913734149065;
;;;;;;;;;;;002;FSCS91;2019_Dec_21_1635;iat_vr;60.53913734149065;
4;SCHÄDLICH;negativ;q;0;0;0;3;q;1;0.8961441000001287;002;FSCS91;2019_Dec_21_1635;iat_vr;60.53913734149065;
4;BAUM;Natur;q;0;1;1;10;q;1;0.6644247000003816;002;FSCS91;2019_Dec_21_1635;iat_vr;60.53913734149065;
4;GEBÄUDE;Gemacht;p;0;2;2;15;p;1;0.8139719000000696;002;FSCS91;2019_Dec_21_1635;iat_vr;60.53913734149065;
4;SCHLECHT;negativ;q;0;3;3;1;q;1;0.9314139999996769;002;FSCS91;2019_Dec_21_1635;iat_vr;60.53913734149065;
4;BLUME;Natur;q;0;4;4;12;q;1;0.7305354999998599;002;FSCS91;2019_Dec_21_1635;iat_vr;60.53913734149065;
4;AUSGEZEICHNET;positiv;p;0;5;5;5;p;1;0.8280746999998883;002;FSCS91;2019_Dec_21_1635;iat_vr;60.53913734149065;
4;GUT;positiv;p;0;6;6;9;p;1;0.5971974000003684;002;FSCS91;2019_Dec_21_1635;iat_vr;60.53913734149065;
4;NEGATIV;negativ;q;0;7;7;2;q;1;0.7475823999993736;002;FSCS91;2019_Dec_21_1635;iat_vr;60.53913734149065;
4;TIER;Natur;q;0;8;8;13;q;1;0.9356113000003461;002;FSCS91;2019_Dec_21_1635;iat_vr;60.53913734149065;
4;LAMPE;Gemacht;p;0;9;9;19;p;1;1.6358707999997932;002;FSCS91;2019_Dec_21_1635;iat_vr;60.53913734149065;
4;POSITIV;positiv;p;0;10;10;8;p;1;1.5289589000003616;002;FSCS91;2019_Dec_21_1635;iat_vr;60.53913734149065;
4;COMPUTER;Gemacht;p;0;11;11;18;p;1;0.613640900000064;002;FSCS91;2019_Dec_21_1635;iat_vr;60.53913734149065;
4;STADT;Gemacht;p;0;12;12;16;p;1;0.5629148999996687;002;FSCS91;2019_Dec_21_1635;iat_vr;60.53913734149065;
4;WASSER;Natur;q;0;13;13;11;q;1;0.6646198999997068;002;FSCS91;2019_Dec_21_1635;iat_vr;60.53913734149065;
4;EINWANDFREI;positiv;p;0;14;14;6;p;1;1.1126445999998396;002;FSCS91;2019_Dec_21_1635;iat_vr;60.53913734149065;
4;SCHWACH;negativ;q;0;15;15;4;q;1;1.3473253000001932;002;FSCS91;2019_Dec_21_1635;iat_vr;60.53913734149065;
4;KLEIDER;Gemacht;p;0;16;16;17;p;1;1.0424793000001955;002;FSCS91;2019_Dec_21_1635;iat_vr;60.53913734149065;
4;HERVORRAGEND;positiv;p;0;17;17;7;p;1;1.0010823000002347;002;FSCS91;2019_Dec_21_1635;iat_vr;60.53913734149065;
4;STEIN;Natur;q;0;18;18;14;q;1;0.965894500000104;002;FSCS91;2019_Dec_21_1635;iat_vr;60.53913734149065;
4;SCHLIMM;negativ;q;0;19;19;0;q;1;0.8151289999996152;002;FSCS91;2019_Dec_21_1635;iat_vr;60.53913734149065;
4;STEIN;Natur;q;1;0;20;14;q;1;0.7522947999996177;002;FSCS91;2019_Dec_21_1635;iat_vr;60.53913734149065;
4;SCHWACH;negativ;q;1;1;21;4;q;1;0.9131084000000556;002;FSCS91;2019_Dec_21_1635;iat_vr;60.53913734149065;
4;GUT;positiv;p;1;2;22;9;p;1;0.8247980999994979;002;FSCS91;2019_Dec_21_1635;iat_vr;60.53913734149065;
4;BLUME;Natur;q;1;3;23;12;q;1;0.8473178000003827;002;FSCS91;2019_Dec_21_1635;iat_vr;60.53913734149065;
4;LAMPE;Gemacht;p;1;4;24;19;p;1;1.4019708000005267;002;FSCS91;2019_Dec_21_1635;iat_vr;60.53913734149065;
4;SCHLECHT;negativ;q;1;5;25;1;q;1;0.964436599999317;002;FSCS91;2019_Dec_21_1635;iat_vr;60.53913734149065;
4;GEBÄUDE;Gemacht;p;1;6;26;15;p;1;1.481414799999584;002;FSCS91;2019_Dec_21_1635;iat_vr;60.53913734149065;
4;STADT;Gemacht;p;1;7;27;16;p;1;0.6483386999998402;002;FSCS91;2019_Dec_21_1635;iat_vr;60.53913734149065;
4;SCHÄDLICH;negativ;q;1;8;28;3;q;1;0.7971046000002389;002;FSCS91;2019_Dec_21_1635;iat_vr;60.53913734149065;
4;SCHLIMM;negativ;q;1;9;29;0;q;1;0.7473892000007254;002;FSCS91;2019_Dec_21_1635;iat_vr;60.53913734149065;
4;POSITIV;positiv;p;1;10;30;8;p;1;0.6795758999996906;002;FSCS91;2019_Dec_21_1635;iat_vr;60.53913734149065;
4;AUSGEZEICHNET;positiv;p;1;11;31;5;p;1;0.9009548000003633;002;FSCS91;2019_Dec_21_1635;iat_vr;60.53913734149065;
4;NEGATIV;negativ;q;1;12;32;2;q;1;0.6839626999999382;002;FSCS91;2019_Dec_21_1635;iat_vr;60.53913734149065;
4;BAUM;Natur;q;1;13;33;10;q;1;0.682321299999785;002;FSCS91;2019_Dec_21_1635;iat_vr;60.53913734149065;
4;EINWANDFREI;positiv;p;1;14;34;6;p;1;1.0615812999994887;002;FSCS91;2019_Dec_21_1635;iat_vr;60.53913734149065;
4;COMPUTER;Gemacht;p;1;15;35;18;p;1;0.8636910000004718;002;FSCS91;2019_Dec_21_1635;iat_vr;60.53913734149065;
4;WASSER;Natur;q;1;16;36;11;q;1;1.2825042000004032;002;FSCS91;2019_Dec_21_1635;iat_vr;60.53913734149065;
4;KLEIDER;Gemacht;p;1;17;37;17;p;1;1.5013099999996484;002;FSCS91;2019_Dec_21_1635;iat_vr;60.53913734149065;
4;TIER;Natur;q;1;18;38;13;q;1;2.729906100000335;002;FSCS91;2019_Dec_21_1635;iat_vr;60.53913734149065;
4;HERVORRAGEND;positiv;p;1;19;39;7;p;1;0.8489253999996436;002;FSCS91;2019_Dec_21_1635;iat_vr;60.53913734149065;
;;;;;;;;;;;002;FSCS91;2019_Dec_21_1635;iat_vr;60.53913734149065;
5;GEBÄUDE;Gemacht;q;0;0;0;5;q;1;0.9814038000004075;002;FSCS91;2019_Dec_21_1635;iat_vr;60.53913734149065;
5;COMPUTER;Gemacht;q;0;1;1;8;q;1;0.4482551999999487;002;FSCS91;2019_Dec_21_1635;iat_vr;60.53913734149065;
5;BLUME;Natur;p;0;2;2;2;p;1;0.7317841000003682;002;FSCS91;2019_Dec_21_1635;iat_vr;60.53913734149065;
5;WASSER;Natur;p;0;3;3;1;p;1;0.6317886000006183;002;FSCS91;2019_Dec_21_1635;iat_vr;60.53913734149065;
5;KLEIDER;Gemacht;q;0;4;4;7;q;1;0.8794438000004448;002;FSCS91;2019_Dec_21_1635;iat_vr;60.53913734149065;
5;LAMPE;Gemacht;q;0;5;5;9;q;1;0.5338875000006738;002;FSCS91;2019_Dec_21_1635;iat_vr;60.53913734149065;
5;STADT;Gemacht;q;0;6;6;6;q;1;0.5508872000000338;002;FSCS91;2019_Dec_21_1635;iat_vr;60.53913734149065;
5;STEIN;Natur;p;0;7;7;4;p;1;0.6986470000001646;002;FSCS91;2019_Dec_21_1635;iat_vr;60.53913734149065;
5;TIER;Natur;p;0;8;8;3;p;1;0.549308600000586;002;FSCS91;2019_Dec_21_1635;iat_vr;60.53913734149065;
5;BAUM;Natur;p;0;9;9;0;p;1;0.5350168000004487;002;FSCS91;2019_Dec_21_1635;iat_vr;60.53913734149065;
5;KLEIDER;Gemacht;q;1;0;10;7;q;1;0.6311304999999265;002;FSCS91;2019_Dec_21_1635;iat_vr;60.53913734149065;
5;GEBÄUDE;Gemacht;q;1;1;11;5;q;1;0.5646401000003607;002;FSCS91;2019_Dec_21_1635;iat_vr;60.53913734149065;
5;LAMPE;Gemacht;q;1;2;12;9;q;1;0.5523314000001847;002;FSCS91;2019_Dec_21_1635;iat_vr;60.53913734149065;
5;BLUME;Natur;p;1;3;13;2;p;1;0.8988149999995585;002;FSCS91;2019_Dec_21_1635;iat_vr;60.53913734149065;
5;COMPUTER;Gemacht;q;1;4;14;8;q;1;0.59795000000031;002;FSCS91;2019_Dec_21_1635;iat_vr;60.53913734149065;
5;STADT;Gemacht;q;1;5;15;6;q;1;0.662285499999598;002;FSCS91;2019_Dec_21_1635;iat_vr;60.53913734149065;
5;STEIN;Natur;p;1;6;16;4;p;1;0.6631027000003087;002;FSCS91;2019_Dec_21_1635;iat_vr;60.53913734149065;
5;BAUM;Natur;p;1;7;17;0;p;1;0.515246500000103;002;FSCS91;2019_Dec_21_1635;iat_vr;60.53913734149065;
5;TIER;Natur;p;1;8;18;3;p;1;0.5140412000000651;002;FSCS91;2019_Dec_21_1635;iat_vr;60.53913734149065;
5;WASSER;Natur;p;1;9;19;1;p;1;0.5514738000001671;002;FSCS91;2019_Dec_21_1635;iat_vr;60.53913734149065;
;;;;;;;;;;;002;FSCS91;2019_Dec_21_1635;iat_vr;60.53913734149065;
6;SCHWACH;negativ;q;0;0;0;14;q;1;1.8601866999997583;002;FSCS91;2019_Dec_21_1635;iat_vr;60.53913734149065;
6;KLEIDER;Gemacht;q;0;1;1;7;p;0;1.5483570000005784;002;FSCS91;2019_Dec_21_1635;iat_vr;60.53913734149065;
6;STEIN;Natur;p;0;2;2;4;p;1;2.451881599999979;002;FSCS91;2019_Dec_21_1635;iat_vr;60.53913734149065;
6;SCHÄDLICH;negativ;q;0;3;3;13;q;1;1.346707100000458;002;FSCS91;2019_Dec_21_1635;iat_vr;60.53913734149065;
6;HERVORRAGEND;positiv;p;0;4;4;17;p;1;0.8087193000001207;002;FSCS91;2019_Dec_21_1635;iat_vr;60.53913734149065;
6;GEBÄUDE;Gemacht;q;0;5;5;5;q;1;2.647543400000359;002;FSCS91;2019_Dec_21_1635;iat_vr;60.53913734149065;
6;BLUME;Natur;p;0;6;6;2;p;1;1.698908799999117;002;FSCS91;2019_Dec_21_1635;iat_vr;60.53913734149065;
6;SCHLIMM;negativ;q;0;7;7;10;q;1;2.114554699999644;002;FSCS91;2019_Dec_21_1635;iat_vr;60.53913734149065;
6;TIER;Natur;p;0;8;8;3;p;1;1.1136349000007613;002;FSCS91;2019_Dec_21_1635;iat_vr;60.53913734149065;
6;POSITIV;positiv;p;0;9;9;18;p;1;1.5173136999992494;002;FSCS91;2019_Dec_21_1635;iat_vr;60.53913734149065;
6;LAMPE;Gemacht;q;0;10;10;9;q;1;1.9952167999999801;002;FSCS91;2019_Dec_21_1635;iat_vr;60.53913734149065;
6;STADT;Gemacht;q;0;11;11;6;q;1;0.7181088999996064;002;FSCS91;2019_Dec_21_1635;iat_vr;60.53913734149065;
6;BAUM;Natur;p;0;12;12;0;p;1;0.8688720999998623;002;FSCS91;2019_Dec_21_1635;iat_vr;60.53913734149065;
6;NEGATIV;negativ;q;0;13;13;12;q;1;1.1430120000004536;002;FSCS91;2019_Dec_21_1635;iat_vr;60.53913734149065;
6;GUT;positiv;p;0;14;14;19;p;1;0.7487670999998954;002;FSCS91;2019_Dec_21_1635;iat_vr;60.53913734149065;
6;AUSGEZEICHNET;positiv;p;0;15;15;15;p;1;0.7525808000000325;002;FSCS91;2019_Dec_21_1635;iat_vr;60.53913734149065;
6;SCHLECHT;negativ;q;0;16;16;11;q;1;0.8974302000005991;002;FSCS91;2019_Dec_21_1635;iat_vr;60.53913734149065;
6;WASSER;Natur;p;0;17;17;1;p;1;2.096605300000192;002;FSCS91;2019_Dec_21_1635;iat_vr;60.53913734149065;
6;COMPUTER;Gemacht;q;0;18;18;8;q;1;1.162039800000457;002;FSCS91;2019_Dec_21_1635;iat_vr;60.53913734149065;
6;EINWANDFREI;positiv;p;0;19;19;16;p;1;1.3588049999998475;002;FSCS91;2019_Dec_21_1635;iat_vr;60.53913734149065;
;;;;;;;;;;;002;FSCS91;2019_Dec_21_1635;iat_vr;60.53913734149065;
7;POSITIV;positiv;p;0;0;0;18;p;1;0.6406206999999995;002;FSCS91;2019_Dec_21_1635;iat_vr;60.53913734149065;
7;KLEIDER;Gemacht;q;0;1;1;7;q;1;0.6501066999999239;002;FSCS91;2019_Dec_21_1635;iat_vr;60.53913734149065;
7;EINWANDFREI;positiv;p;0;2;2;16;p;1;0.8278622999996514;002;FSCS91;2019_Dec_21_1635;iat_vr;60.53913734149065;
7;COMPUTER;Gemacht;q;0;3;3;8;q;1;0.9285490999991453;002;FSCS91;2019_Dec_21_1635;iat_vr;60.53913734149065;
7;BLUME;Natur;p;0;4;4;2;p;1;2.3837211000000025;002;FSCS91;2019_Dec_21_1635;iat_vr;60.53913734149065;
7;STEIN;Natur;p;0;5;5;4;p;1;0.529560599999968;002;FSCS91;2019_Dec_21_1635;iat_vr;60.53913734149065;
7;GUT;positiv;p;0;6;6;19;p;1;0.5825038000002678;002;FSCS91;2019_Dec_21_1635;iat_vr;60.53913734149065;
7;WASSER;Natur;p;0;7;7;1;p;1;0.47846779999963474;002;FSCS91;2019_Dec_21_1635;iat_vr;60.53913734149065;
7;NEGATIV;negativ;q;0;8;8;12;q;1;0.7667048000002978;002;FSCS91;2019_Dec_21_1635;iat_vr;60.53913734149065;
7;HERVORRAGEND;positiv;p;0;9;9;17;p;1;0.6602870999995503;002;FSCS91;2019_Dec_21_1635;iat_vr;60.53913734149065;
7;GEBÄUDE;Gemacht;q;0;10;10;5;q;1;0.8009457999996812;002;FSCS91;2019_Dec_21_1635;iat_vr;60.53913734149065;
7;AUSGEZEICHNET;positiv;p;0;11;11;15;p;1;0.6831019999999626;002;FSCS91;2019_Dec_21_1635;iat_vr;60.53913734149065;
7;BAUM;Natur;p;0;12;12;0;p;1;1.1993050999999468;002;FSCS91;2019_Dec_21_1635;iat_vr;60.53913734149065;
7;SCHÄDLICH;negativ;q;0;13;13;13;q;1;0.9507959000002302;002;FSCS91;2019_Dec_21_1635;iat_vr;60.53913734149065;
7;LAMPE;Gemacht;q;0;14;14;9;q;1;0.9520937000006597;002;FSCS91;2019_Dec_21_1635;iat_vr;60.53913734149065;
7;SCHLIMM;negativ;q;0;15;15;10;q;1;0.5677709000001414;002;FSCS91;2019_Dec_21_1635;iat_vr;60.53913734149065;
7;SCHLECHT;negativ;q;0;16;16;11;q;1;0.647740899999917;002;FSCS91;2019_Dec_21_1635;iat_vr;60.53913734149065;
7;TIER;Natur;p;0;17;17;3;p;1;0.6652518000000782;002;FSCS91;2019_Dec_21_1635;iat_vr;60.53913734149065;
7;STADT;Gemacht;q;0;18;18;6;q;1;0.6650829000000158;002;FSCS91;2019_Dec_21_1635;iat_vr;60.53913734149065;
7;SCHWACH;negativ;q;0;19;19;14;q;1;0.7185337999999319;002;FSCS91;2019_Dec_21_1635;iat_vr;60.53913734149065;
7;SCHLIMM;negativ;q;1;0;20;10;q;1;0.68122669999957;002;FSCS91;2019_Dec_21_1635;iat_vr;60.53913734149065;
7;STEIN;Natur;p;1;1;21;4;p;1;0.7653265999997529;002;FSCS91;2019_Dec_21_1635;iat_vr;60.53913734149065;
7;KLEIDER;Gemacht;q;1;2;22;7;p;0;0.5793610999999146;002;FSCS91;2019_Dec_21_1635;iat_vr;60.53913734149065;
7;POSITIV;positiv;p;1;3;23;18;p;1;0.8309446000002936;002;FSCS91;2019_Dec_21_1635;iat_vr;60.53913734149065;
7;BAUM;Natur;p;1;4;24;0;p;1;0.5492446000007476;002;FSCS91;2019_Dec_21_1635;iat_vr;60.53913734149065;
7;HERVORRAGEND;positiv;p;1;5;25;17;p;1;1.3892190999995364;002;FSCS91;2019_Dec_21_1635;iat_vr;60.53913734149065;
7;SCHLECHT;negativ;q;1;6;26;11;q;1;0.6959601999997176;002;FSCS91;2019_Dec_21_1635;iat_vr;60.53913734149065;
7;GEBÄUDE;Gemacht;q;1;7;27;5;q;1;1.0484771000001274;002;FSCS91;2019_Dec_21_1635;iat_vr;60.53913734149065;
7;GUT;positiv;p;1;8;28;19;p;1;0.5829592999998567;002;FSCS91;2019_Dec_21_1635;iat_vr;60.53913734149065;
7;COMPUTER;Gemacht;q;1;9;29;8;q;1;1.5354149000004327;002;FSCS91;2019_Dec_21_1635;iat_vr;60.53913734149065;
7;TIER;Natur;p;1;10;30;3;p;1;0.6309314999998605;002;FSCS91;2019_Dec_21_1635;iat_vr;60.53913734149065;
7;WASSER;Natur;p;1;11;31;1;p;1;0.516796400000203;002;FSCS91;2019_Dec_21_1635;iat_vr;60.53913734149065;
7;EINWANDFREI;positiv;p;1;12;32;16;p;1;0.5762353000000076;002;FSCS91;2019_Dec_21_1635;iat_vr;60.53913734149065;
7;SCHÄDLICH;negativ;q;1;13;33;13;q;1;0.6973488999992696;002;FSCS91;2019_Dec_21_1635;iat_vr;60.53913734149065;
7;BLUME;Natur;p;1;14;34;2;q;0;0.48166760000003705;002;FSCS91;2019_Dec_21_1635;iat_vr;60.53913734149065;
7;SCHWACH;negativ;q;1;15;35;14;q;1;0.7948277000004964;002;FSCS91;2019_Dec_21_1635;iat_vr;60.53913734149065;
7;NEGATIV;negativ;q;1;16;36;12;q;1;0.5810848999999507;002;FSCS91;2019_Dec_21_1635;iat_vr;60.53913734149065;
7;AUSGEZEICHNET;positiv;p;1;17;37;15;p;1;0.6112142999991192;002;FSCS91;2019_Dec_21_1635;iat_vr;60.53913734149065;
7;LAMPE;Gemacht;q;1;18;38;9;q;1;0.7812465000006341;002;FSCS91;2019_Dec_21_1635;iat_vr;60.53913734149065;
7;STADT;Gemacht;q;1;19;39;6;q;1;2.3148983999999473;002;FSCS91;2019_Dec_21_1635;iat_vr;60.53913734149065;
;;;;;;;;;;;002;FSCS91;2019_Dec_21_1635;iat_vr;60.53913734149065;
