Block;Word;Category;CorrResp;trials.thisRepN;trials.thisTrialN;trials.thisN;trials.thisIndex;key_resp_2.keys;key_resp_2.corr;key_resp_2.rt;session;participant;date;expName;frameRate;
1;BAUM;Natur;q;0;0;0;0;q;1;3.490970999999263;001;FSFW69;2019_Dec_19_1609;iat_vr;60.13999387691874;
1;TIER;Natur;q;0;1;1;3;q;1;1.056533799997851;001;FSFW69;2019_Dec_19_1609;iat_vr;60.13999387691874;
1;LAMPE;Gemacht;p;0;2;2;9;p;1;0.7428782000024512;001;FSFW69;2019_Dec_19_1609;iat_vr;60.13999387691874;
1;BLUME;Natur;q;0;3;3;2;q;1;0.6187281000020448;001;FSFW69;2019_Dec_19_1609;iat_vr;60.13999387691874;
1;WASSER;Natur;q;0;4;4;1;q;1;0.599985500000912;001;FSFW69;2019_Dec_19_1609;iat_vr;60.13999387691874;
1;KLEIDER;Gemacht;p;0;5;5;7;p;1;1.457706600001984;001;FSFW69;2019_Dec_19_1609;iat_vr;60.13999387691874;
1;COMPUTER;Gemacht;p;0;6;6;8;p;1;0.6075544999985141;001;FSFW69;2019_Dec_19_1609;iat_vr;60.13999387691874;
1;STEIN;Natur;q;0;7;7;4;q;1;0.6763594999974885;001;FSFW69;2019_Dec_19_1609;iat_vr;60.13999387691874;
1;GEBÄUDE;Gemacht;p;0;8;8;5;p;1;0.6746303999971133;001;FSFW69;2019_Dec_19_1609;iat_vr;60.13999387691874;
1;STADT;Gemacht;p;0;9;9;6;p;1;0.5982116000013775;001;FSFW69;2019_Dec_19_1609;iat_vr;60.13999387691874;
1;TIER;Natur;q;1;0;10;3;q;1;0.6158498999975563;001;FSFW69;2019_Dec_19_1609;iat_vr;60.13999387691874;
1;KLEIDER;Gemacht;p;1;1;11;7;p;1;0.5976538000031724;001;FSFW69;2019_Dec_19_1609;iat_vr;60.13999387691874;
1;LAMPE;Gemacht;p;1;2;12;9;p;1;0.7991080000028887;001;FSFW69;2019_Dec_19_1609;iat_vr;60.13999387691874;
1;STEIN;Natur;q;1;3;13;4;q;1;0.8650667999972939;001;FSFW69;2019_Dec_19_1609;iat_vr;60.13999387691874;
1;GEBÄUDE;Gemacht;p;1;4;14;5;p;1;0.6487159999996948;001;FSFW69;2019_Dec_19_1609;iat_vr;60.13999387691874;
1;WASSER;Natur;q;1;5;15;1;q;1;0.7980688999996346;001;FSFW69;2019_Dec_19_1609;iat_vr;60.13999387691874;
1;BLUME;Natur;q;1;6;16;2;q;1;0.5184825000033015;001;FSFW69;2019_Dec_19_1609;iat_vr;60.13999387691874;
1;STADT;Gemacht;p;1;7;17;6;p;1;0.5321839999996882;001;FSFW69;2019_Dec_19_1609;iat_vr;60.13999387691874;
1;BAUM;Natur;q;1;8;18;0;q;1;1.2160476999997627;001;FSFW69;2019_Dec_19_1609;iat_vr;60.13999387691874;
1;COMPUTER;Gemacht;p;1;9;19;8;p;1;0.6135594000006677;001;FSFW69;2019_Dec_19_1609;iat_vr;60.13999387691874;
;;;;;;;;;;;001;FSFW69;2019_Dec_19_1609;iat_vr;60.13999387691874;
2;GUT;positiv;p;0;0;0;9;p;1;1.636983100001089;001;FSFW69;2019_Dec_19_1609;iat_vr;60.13999387691874;
2;SCHLIMM;negativ;q;0;1;1;0;q;1;2.659576300000481;001;FSFW69;2019_Dec_19_1609;iat_vr;60.13999387691874;
2;SCHLECHT;negativ;q;0;2;2;1;q;1;0.7632372000007308;001;FSFW69;2019_Dec_19_1609;iat_vr;60.13999387691874;
2;SCHWACH;negativ;q;0;3;3;4;q;1;0.836085599999933;001;FSFW69;2019_Dec_19_1609;iat_vr;60.13999387691874;
2;EINWANDFREI;positiv;p;0;4;4;6;p;1;2.2768508000008296;001;FSFW69;2019_Dec_19_1609;iat_vr;60.13999387691874;
2;AUSGEZEICHNET;positiv;p;0;5;5;5;p;1;0.6564171999998507;001;FSFW69;2019_Dec_19_1609;iat_vr;60.13999387691874;
2;HERVORRAGEND;positiv;p;0;6;6;7;p;1;0.5759430999969481;001;FSFW69;2019_Dec_19_1609;iat_vr;60.13999387691874;
2;SCHÄDLICH;negativ;q;0;7;7;3;q;1;0.9844885999991675;001;FSFW69;2019_Dec_19_1609;iat_vr;60.13999387691874;
2;POSITIV;positiv;p;0;8;8;8;p;1;0.9488328999977966;001;FSFW69;2019_Dec_19_1609;iat_vr;60.13999387691874;
2;NEGATIV;negativ;q;0;9;9;2;q;1;0.6472839000016393;001;FSFW69;2019_Dec_19_1609;iat_vr;60.13999387691874;
2;SCHWACH;negativ;q;1;0;10;4;q;1;1.630703300001187;001;FSFW69;2019_Dec_19_1609;iat_vr;60.13999387691874;
2;SCHLECHT;negativ;q;1;1;11;1;q;1;0.6453670000009879;001;FSFW69;2019_Dec_19_1609;iat_vr;60.13999387691874;
2;POSITIV;positiv;p;1;2;12;8;p;1;0.5971377999994729;001;FSFW69;2019_Dec_19_1609;iat_vr;60.13999387691874;
2;HERVORRAGEND;positiv;p;1;3;13;7;p;1;0.7934870000026422;001;FSFW69;2019_Dec_19_1609;iat_vr;60.13999387691874;
2;SCHÄDLICH;negativ;q;1;4;14;3;q;1;0.6446222999984457;001;FSFW69;2019_Dec_19_1609;iat_vr;60.13999387691874;
2;NEGATIV;negativ;q;1;5;15;2;q;1;0.8131794999972044;001;FSFW69;2019_Dec_19_1609;iat_vr;60.13999387691874;
2;EINWANDFREI;positiv;p;1;6;16;6;p;1;1.028285499996855;001;FSFW69;2019_Dec_19_1609;iat_vr;60.13999387691874;
2;AUSGEZEICHNET;positiv;p;1;7;17;5;p;1;0.743041900001117;001;FSFW69;2019_Dec_19_1609;iat_vr;60.13999387691874;
2;GUT;positiv;p;1;8;18;9;p;1;0.5986597999981313;001;FSFW69;2019_Dec_19_1609;iat_vr;60.13999387691874;
2;SCHLIMM;negativ;q;1;9;19;0;q;1;0.8167893999998341;001;FSFW69;2019_Dec_19_1609;iat_vr;60.13999387691874;
;;;;;;;;;;;001;FSFW69;2019_Dec_19_1609;iat_vr;60.13999387691874;
3;GEBÄUDE;Gemacht;p;0;0;0;15;p;1;0.8129394000025059;001;FSFW69;2019_Dec_19_1609;iat_vr;60.13999387691874;
3;AUSGEZEICHNET;positiv;p;0;1;1;5;p;1;0.9945964999969874;001;FSFW69;2019_Dec_19_1609;iat_vr;60.13999387691874;
3;LAMPE;Gemacht;p;0;2;2;19;p;1;0.8165693999981158;001;FSFW69;2019_Dec_19_1609;iat_vr;60.13999387691874;
3;GUT;positiv;p;0;3;3;9;p;1;0.6855390000018815;001;FSFW69;2019_Dec_19_1609;iat_vr;60.13999387691874;
3;SCHÄDLICH;negativ;q;0;4;4;3;q;1;0.9606806999981927;001;FSFW69;2019_Dec_19_1609;iat_vr;60.13999387691874;
3;COMPUTER;Gemacht;p;0;5;5;18;p;1;0.6315991000010399;001;FSFW69;2019_Dec_19_1609;iat_vr;60.13999387691874;
3;STEIN;Natur;q;0;6;6;14;q;1;0.9488053999994008;001;FSFW69;2019_Dec_19_1609;iat_vr;60.13999387691874;
3;TIER;Natur;q;0;7;7;13;q;1;0.5142791999969631;001;FSFW69;2019_Dec_19_1609;iat_vr;60.13999387691874;
3;SCHWACH;negativ;q;0;8;8;4;p;0;0.6148228000020026;001;FSFW69;2019_Dec_19_1609;iat_vr;60.13999387691874;
3;WASSER;Natur;q;0;9;9;11;q;1;0.7821868000028189;001;FSFW69;2019_Dec_19_1609;iat_vr;60.13999387691874;
3;POSITIV;positiv;p;0;10;10;8;p;1;0.8824511999991955;001;FSFW69;2019_Dec_19_1609;iat_vr;60.13999387691874;
3;NEGATIV;negativ;q;0;11;11;2;q;1;0.7479970999993384;001;FSFW69;2019_Dec_19_1609;iat_vr;60.13999387691874;
3;BLUME;Natur;q;0;12;12;12;p;0;0.8475030999979936;001;FSFW69;2019_Dec_19_1609;iat_vr;60.13999387691874;
3;EINWANDFREI;positiv;p;0;13;13;6;p;1;0.8459695000019565;001;FSFW69;2019_Dec_19_1609;iat_vr;60.13999387691874;
3;SCHLECHT;negativ;q;0;14;14;1;q;1;0.7467084999989311;001;FSFW69;2019_Dec_19_1609;iat_vr;60.13999387691874;
3;HERVORRAGEND;positiv;p;0;15;15;7;p;1;2.7447377999997116;001;FSFW69;2019_Dec_19_1609;iat_vr;60.13999387691874;
3;KLEIDER;Gemacht;p;0;16;16;17;p;1;0.9475837999998475;001;FSFW69;2019_Dec_19_1609;iat_vr;60.13999387691874;
3;BAUM;Natur;q;0;17;17;10;q;1;0.7502363000021433;001;FSFW69;2019_Dec_19_1609;iat_vr;60.13999387691874;
3;STADT;Gemacht;p;0;18;18;16;p;1;0.785035599998082;001;FSFW69;2019_Dec_19_1609;iat_vr;60.13999387691874;
3;SCHLIMM;negativ;q;0;19;19;0;q;1;0.7025318999985757;001;FSFW69;2019_Dec_19_1609;iat_vr;60.13999387691874;
;;;;;;;;;;;001;FSFW69;2019_Dec_19_1609;iat_vr;60.13999387691874;
4;AUSGEZEICHNET;positiv;p;0;0;0;5;p;1;0.7763993999978993;001;FSFW69;2019_Dec_19_1609;iat_vr;60.13999387691874;
4;STADT;Gemacht;p;0;1;1;16;q;0;0.8161651000009442;001;FSFW69;2019_Dec_19_1609;iat_vr;60.13999387691874;
4;KLEIDER;Gemacht;p;0;2;2;17;p;1;0.8123810999968555;001;FSFW69;2019_Dec_19_1609;iat_vr;60.13999387691874;
4;SCHLIMM;negativ;q;0;3;3;0;q;1;0.8823134000012942;001;FSFW69;2019_Dec_19_1609;iat_vr;60.13999387691874;
4;SCHLECHT;negativ;q;0;4;4;1;q;1;0.7801545000002079;001;FSFW69;2019_Dec_19_1609;iat_vr;60.13999387691874;
4;POSITIV;positiv;p;0;5;5;8;p;1;0.6777422000013757;001;FSFW69;2019_Dec_19_1609;iat_vr;60.13999387691874;
4;EINWANDFREI;positiv;p;0;6;6;6;p;1;1.2131326000016998;001;FSFW69;2019_Dec_19_1609;iat_vr;60.13999387691874;
4;GEBÄUDE;Gemacht;p;0;7;7;15;p;1;1.3845135999981721;001;FSFW69;2019_Dec_19_1609;iat_vr;60.13999387691874;
4;SCHÄDLICH;negativ;q;0;8;8;3;q;1;1.5470366000008653;001;FSFW69;2019_Dec_19_1609;iat_vr;60.13999387691874;
4;WASSER;Natur;q;0;9;9;11;q;1;0.7308678000008513;001;FSFW69;2019_Dec_19_1609;iat_vr;60.13999387691874;
4;SCHWACH;negativ;q;0;10;10;4;q;1;1.1303046000030008;001;FSFW69;2019_Dec_19_1609;iat_vr;60.13999387691874;
4;HERVORRAGEND;positiv;p;0;11;11;7;p;1;1.5350581999991846;001;FSFW69;2019_Dec_19_1609;iat_vr;60.13999387691874;
4;COMPUTER;Gemacht;p;0;12;12;18;p;1;0.5312954999972135;001;FSFW69;2019_Dec_19_1609;iat_vr;60.13999387691874;
4;LAMPE;Gemacht;p;0;13;13;19;p;1;0.44642149999708636;001;FSFW69;2019_Dec_19_1609;iat_vr;60.13999387691874;
4;STEIN;Natur;q;0;14;14;14;q;1;0.9322214999992866;001;FSFW69;2019_Dec_19_1609;iat_vr;60.13999387691874;
4;GUT;positiv;p;0;15;15;9;q;0;0.6826423999991675;001;FSFW69;2019_Dec_19_1609;iat_vr;60.13999387691874;
4;BLUME;Natur;q;0;16;16;12;q;1;4.429198199999519;001;FSFW69;2019_Dec_19_1609;iat_vr;60.13999387691874;
4;BAUM;Natur;q;0;17;17;10;q;1;0.595367100002477;001;FSFW69;2019_Dec_19_1609;iat_vr;60.13999387691874;
4;NEGATIV;negativ;q;0;18;18;2;q;1;1.2146001000000979;001;FSFW69;2019_Dec_19_1609;iat_vr;60.13999387691874;
4;TIER;Natur;q;0;19;19;13;q;1;0.7984037999995053;001;FSFW69;2019_Dec_19_1609;iat_vr;60.13999387691874;
4;KLEIDER;Gemacht;p;1;0;20;17;p;1;1.047522699998808;001;FSFW69;2019_Dec_19_1609;iat_vr;60.13999387691874;
4;BLUME;Natur;q;1;1;21;12;q;1;1.3989947000009124;001;FSFW69;2019_Dec_19_1609;iat_vr;60.13999387691874;
4;WASSER;Natur;q;1;2;22;11;q;1;0.7812880000019504;001;FSFW69;2019_Dec_19_1609;iat_vr;60.13999387691874;
4;SCHLIMM;negativ;q;1;3;23;0;q;1;0.9482897000016237;001;FSFW69;2019_Dec_19_1609;iat_vr;60.13999387691874;
4;GEBÄUDE;Gemacht;p;1;4;24;15;p;1;0.7476871999970172;001;FSFW69;2019_Dec_19_1609;iat_vr;60.13999387691874;
4;GUT;positiv;p;1;5;25;9;p;1;0.9983379000004788;001;FSFW69;2019_Dec_19_1609;iat_vr;60.13999387691874;
4;STEIN;Natur;q;1;6;26;14;q;1;0.7645903999982693;001;FSFW69;2019_Dec_19_1609;iat_vr;60.13999387691874;
4;HERVORRAGEND;positiv;p;1;7;27;7;p;1;0.8855404000023555;001;FSFW69;2019_Dec_19_1609;iat_vr;60.13999387691874;
4;SCHWACH;negativ;q;1;8;28;4;q;1;0.7519286999995529;001;FSFW69;2019_Dec_19_1609;iat_vr;60.13999387691874;
4;NEGATIV;negativ;q;1;9;29;2;q;1;0.8803621999977622;001;FSFW69;2019_Dec_19_1609;iat_vr;60.13999387691874;
4;BAUM;Natur;q;1;10;30;10;p;0;0.8336072000020067;001;FSFW69;2019_Dec_19_1609;iat_vr;60.13999387691874;
4;AUSGEZEICHNET;positiv;p;1;11;31;5;p;1;0.7456887000007555;001;FSFW69;2019_Dec_19_1609;iat_vr;60.13999387691874;
4;TIER;Natur;q;1;12;32;13;q;1;1.2987973999988753;001;FSFW69;2019_Dec_19_1609;iat_vr;60.13999387691874;
4;SCHÄDLICH;negativ;q;1;13;33;3;q;1;1.8474328000011155;001;FSFW69;2019_Dec_19_1609;iat_vr;60.13999387691874;
4;LAMPE;Gemacht;p;1;14;34;19;p;1;0.949237600001652;001;FSFW69;2019_Dec_19_1609;iat_vr;60.13999387691874;
4;EINWANDFREI;positiv;p;1;15;35;6;p;1;0.7608835999999428;001;FSFW69;2019_Dec_19_1609;iat_vr;60.13999387691874;
4;COMPUTER;Gemacht;p;1;16;36;18;p;1;0.6306054999986372;001;FSFW69;2019_Dec_19_1609;iat_vr;60.13999387691874;
4;SCHLECHT;negativ;q;1;17;37;1;q;1;0.7804980000000796;001;FSFW69;2019_Dec_19_1609;iat_vr;60.13999387691874;
4;STADT;Gemacht;p;1;18;38;16;p;1;0.6136631000008492;001;FSFW69;2019_Dec_19_1609;iat_vr;60.13999387691874;
4;POSITIV;positiv;p;1;19;39;8;p;1;0.8827433999977075;001;FSFW69;2019_Dec_19_1609;iat_vr;60.13999387691874;
;;;;;;;;;;;001;FSFW69;2019_Dec_19_1609;iat_vr;60.13999387691874;
5;LAMPE;Gemacht;q;0;0;0;9;q;1;3.1474426000022504;001;FSFW69;2019_Dec_19_1609;iat_vr;60.13999387691874;
5;KLEIDER;Gemacht;q;0;1;1;7;q;1;1.8289662999995926;001;FSFW69;2019_Dec_19_1609;iat_vr;60.13999387691874;
5;BAUM;Natur;p;0;2;2;0;p;1;0.6992820000014035;001;FSFW69;2019_Dec_19_1609;iat_vr;60.13999387691874;
5;BLUME;Natur;p;0;3;3;2;p;1;0.5491394000018772;001;FSFW69;2019_Dec_19_1609;iat_vr;60.13999387691874;
5;STADT;Gemacht;q;0;4;4;6;q;1;0.7805508999990707;001;FSFW69;2019_Dec_19_1609;iat_vr;60.13999387691874;
5;WASSER;Natur;p;0;5;5;1;p;1;1.4305434000016248;001;FSFW69;2019_Dec_19_1609;iat_vr;60.13999387691874;
5;COMPUTER;Gemacht;q;0;6;6;8;q;1;0.5479637999997067;001;FSFW69;2019_Dec_19_1609;iat_vr;60.13999387691874;
5;GEBÄUDE;Gemacht;q;0;7;7;5;q;1;0.5159201999995275;001;FSFW69;2019_Dec_19_1609;iat_vr;60.13999387691874;
5;STEIN;Natur;p;0;8;8;4;p;1;0.5651663999997254;001;FSFW69;2019_Dec_19_1609;iat_vr;60.13999387691874;
5;TIER;Natur;p;0;9;9;3;p;1;0.41626019999966957;001;FSFW69;2019_Dec_19_1609;iat_vr;60.13999387691874;
5;BAUM;Natur;p;1;0;10;0;p;1;0.4494023000006564;001;FSFW69;2019_Dec_19_1609;iat_vr;60.13999387691874;
5;STADT;Gemacht;q;1;1;11;6;q;1;0.6318882000014128;001;FSFW69;2019_Dec_19_1609;iat_vr;60.13999387691874;
5;GEBÄUDE;Gemacht;q;1;2;12;5;q;1;0.49636009999812813;001;FSFW69;2019_Dec_19_1609;iat_vr;60.13999387691874;
5;COMPUTER;Gemacht;q;1;3;13;8;q;1;0.7648117000026105;001;FSFW69;2019_Dec_19_1609;iat_vr;60.13999387691874;
5;LAMPE;Gemacht;q;1;4;14;9;q;1;0.6004413000009663;001;FSFW69;2019_Dec_19_1609;iat_vr;60.13999387691874;
5;WASSER;Natur;p;1;5;15;1;p;1;0.5623426000020117;001;FSFW69;2019_Dec_19_1609;iat_vr;60.13999387691874;
5;TIER;Natur;p;1;6;16;3;p;1;0.5659285000001546;001;FSFW69;2019_Dec_19_1609;iat_vr;60.13999387691874;
5;KLEIDER;Gemacht;q;1;7;17;7;q;1;0.6357212999973854;001;FSFW69;2019_Dec_19_1609;iat_vr;60.13999387691874;
5;STEIN;Natur;p;1;8;18;4;p;1;0.581241100000625;001;FSFW69;2019_Dec_19_1609;iat_vr;60.13999387691874;
5;BLUME;Natur;p;1;9;19;2;p;1;0.5128017000024556;001;FSFW69;2019_Dec_19_1609;iat_vr;60.13999387691874;
;;;;;;;;;;;001;FSFW69;2019_Dec_19_1609;iat_vr;60.13999387691874;
6;POSITIV;positiv;p;0;0;0;18;p;1;2.2118059000022186;001;FSFW69;2019_Dec_19_1609;iat_vr;60.13999387691874;
6;STEIN;Natur;p;0;1;1;4;p;1;0.5812986999990244;001;FSFW69;2019_Dec_19_1609;iat_vr;60.13999387691874;
6;TIER;Natur;p;0;2;2;3;p;1;0.4493069000018295;001;FSFW69;2019_Dec_19_1609;iat_vr;60.13999387691874;
6;EINWANDFREI;positiv;p;0;3;3;16;p;1;0.6088111999997636;001;FSFW69;2019_Dec_19_1609;iat_vr;60.13999387691874;
6;NEGATIV;negativ;q;0;4;4;12;q;1;0.7815405000001192;001;FSFW69;2019_Dec_19_1609;iat_vr;60.13999387691874;
6;AUSGEZEICHNET;positiv;p;0;5;5;15;p;1;1.4291976999993494;001;FSFW69;2019_Dec_19_1609;iat_vr;60.13999387691874;
6;SCHLIMM;negativ;q;0;6;6;10;q;1;0.8356923999999708;001;FSFW69;2019_Dec_19_1609;iat_vr;60.13999387691874;
6;BAUM;Natur;p;0;7;7;0;p;1;0.6330931000011333;001;FSFW69;2019_Dec_19_1609;iat_vr;60.13999387691874;
6;SCHLECHT;negativ;q;0;8;8;11;q;1;1.04675380000117;001;FSFW69;2019_Dec_19_1609;iat_vr;60.13999387691874;
6;GUT;positiv;p;0;9;9;19;p;1;2.383394299999054;001;FSFW69;2019_Dec_19_1609;iat_vr;60.13999387691874;
6;GEBÄUDE;Gemacht;q;0;10;10;5;q;1;0.7807265000010375;001;FSFW69;2019_Dec_19_1609;iat_vr;60.13999387691874;
6;BLUME;Natur;p;0;11;11;2;p;1;0.5772255000010773;001;FSFW69;2019_Dec_19_1609;iat_vr;60.13999387691874;
6;STADT;Gemacht;q;0;12;12;6;q;1;0.8824147999985144;001;FSFW69;2019_Dec_19_1609;iat_vr;60.13999387691874;
6;COMPUTER;Gemacht;q;0;13;13;8;q;1;1.3467419000007794;001;FSFW69;2019_Dec_19_1609;iat_vr;60.13999387691874;
6;LAMPE;Gemacht;q;0;14;14;9;q;1;0.5686975000025996;001;FSFW69;2019_Dec_19_1609;iat_vr;60.13999387691874;
6;SCHÄDLICH;negativ;q;0;15;15;13;q;1;0.6475002999977733;001;FSFW69;2019_Dec_19_1609;iat_vr;60.13999387691874;
6;HERVORRAGEND;positiv;p;0;16;16;17;p;1;0.8962000999999873;001;FSFW69;2019_Dec_19_1609;iat_vr;60.13999387691874;
6;KLEIDER;Gemacht;q;0;17;17;7;q;1;0.6792330999996921;001;FSFW69;2019_Dec_19_1609;iat_vr;60.13999387691874;
6;SCHWACH;negativ;q;0;18;18;14;q;1;0.9965466000030574;001;FSFW69;2019_Dec_19_1609;iat_vr;60.13999387691874;
6;WASSER;Natur;p;0;19;19;1;p;1;0.6811120999991545;001;FSFW69;2019_Dec_19_1609;iat_vr;60.13999387691874;
;;;;;;;;;;;001;FSFW69;2019_Dec_19_1609;iat_vr;60.13999387691874;
7;POSITIV;positiv;p;0;0;0;18;p;1;0.8857841999997618;001;FSFW69;2019_Dec_19_1609;iat_vr;60.13999387691874;
7;SCHLIMM;negativ;q;0;1;1;10;q;1;0.7121659000004001;001;FSFW69;2019_Dec_19_1609;iat_vr;60.13999387691874;
7;LAMPE;Gemacht;q;0;2;2;9;q;1;2.332234800000151;001;FSFW69;2019_Dec_19_1609;iat_vr;60.13999387691874;
7;GUT;positiv;p;0;3;3;19;p;1;1.2331330000015441;001;FSFW69;2019_Dec_19_1609;iat_vr;60.13999387691874;
7;SCHWACH;negativ;q;0;4;4;14;q;1;0.6968870999990031;001;FSFW69;2019_Dec_19_1609;iat_vr;60.13999387691874;
7;AUSGEZEICHNET;positiv;p;0;5;5;15;p;1;0.6191724000018439;001;FSFW69;2019_Dec_19_1609;iat_vr;60.13999387691874;
7;EINWANDFREI;positiv;p;0;6;6;16;p;1;0.5806924999997136;001;FSFW69;2019_Dec_19_1609;iat_vr;60.13999387691874;
7;STADT;Gemacht;q;0;7;7;6;q;1;0.5637098000006517;001;FSFW69;2019_Dec_19_1609;iat_vr;60.13999387691874;
7;TIER;Natur;p;0;8;8;3;p;1;0.582522799999424;001;FSFW69;2019_Dec_19_1609;iat_vr;60.13999387691874;
7;HERVORRAGEND;positiv;p;0;9;9;17;p;1;0.7462993999979517;001;FSFW69;2019_Dec_19_1609;iat_vr;60.13999387691874;
7;GEBÄUDE;Gemacht;q;0;10;10;5;q;1;0.6092822999999044;001;FSFW69;2019_Dec_19_1609;iat_vr;60.13999387691874;
7;WASSER;Natur;p;0;11;11;1;p;1;0.5969898000003013;001;FSFW69;2019_Dec_19_1609;iat_vr;60.13999387691874;
7;COMPUTER;Gemacht;q;0;12;12;8;q;1;0.6026558000012301;001;FSFW69;2019_Dec_19_1609;iat_vr;60.13999387691874;
7;BLUME;Natur;p;0;13;13;2;p;1;0.5983027000002039;001;FSFW69;2019_Dec_19_1609;iat_vr;60.13999387691874;
7;STEIN;Natur;p;0;14;14;4;p;1;1.382331000000704;001;FSFW69;2019_Dec_19_1609;iat_vr;60.13999387691874;
7;BAUM;Natur;p;0;15;15;0;p;1;0.4489603000001807;001;FSFW69;2019_Dec_19_1609;iat_vr;60.13999387691874;
7;KLEIDER;Gemacht;q;0;16;16;7;q;1;0.5640600999977323;001;FSFW69;2019_Dec_19_1609;iat_vr;60.13999387691874;
7;SCHLECHT;negativ;q;0;17;17;11;q;1;0.6356106999992335;001;FSFW69;2019_Dec_19_1609;iat_vr;60.13999387691874;
7;SCHÄDLICH;negativ;q;0;18;18;13;q;1;0.5130218999984208;001;FSFW69;2019_Dec_19_1609;iat_vr;60.13999387691874;
7;NEGATIV;negativ;q;0;19;19;12;q;1;0.4992521999993187;001;FSFW69;2019_Dec_19_1609;iat_vr;60.13999387691874;
7;BAUM;Natur;p;1;0;20;0;p;1;0.515542799999821;001;FSFW69;2019_Dec_19_1609;iat_vr;60.13999387691874;
7;COMPUTER;Gemacht;q;1;1;21;8;q;1;0.5649333000001207;001;FSFW69;2019_Dec_19_1609;iat_vr;60.13999387691874;
7;STADT;Gemacht;q;1;2;22;6;p;0;0.4825539999983448;001;FSFW69;2019_Dec_19_1609;iat_vr;60.13999387691874;
7;GEBÄUDE;Gemacht;q;1;3;23;5;q;1;0.32937890000175685;001;FSFW69;2019_Dec_19_1609;iat_vr;60.13999387691874;
7;SCHÄDLICH;negativ;q;1;4;24;13;q;1;0.5125674000009894;001;FSFW69;2019_Dec_19_1609;iat_vr;60.13999387691874;
7;GUT;positiv;p;1;5;25;19;p;1;0.5822138000003179;001;FSFW69;2019_Dec_19_1609;iat_vr;60.13999387691874;
7;SCHLECHT;negativ;q;1;6;26;11;q;1;1.1975419000009424;001;FSFW69;2019_Dec_19_1609;iat_vr;60.13999387691874;
7;TIER;Natur;p;1;7;27;3;p;1;1.4489758999989135;001;FSFW69;2019_Dec_19_1609;iat_vr;60.13999387691874;
7;SCHWACH;negativ;q;1;8;28;14;q;1;0.8160822999998345;001;FSFW69;2019_Dec_19_1609;iat_vr;60.13999387691874;
7;EINWANDFREI;positiv;p;1;9;29;16;p;1;0.7614700999984052;001;FSFW69;2019_Dec_19_1609;iat_vr;60.13999387691874;
7;WASSER;Natur;p;1;10;30;1;p;1;0.9316730999998981;001;FSFW69;2019_Dec_19_1609;iat_vr;60.13999387691874;
7;KLEIDER;Gemacht;q;1;11;31;7;q;1;1.0484069000012823;001;FSFW69;2019_Dec_19_1609;iat_vr;60.13999387691874;
7;LAMPE;Gemacht;q;1;12;32;9;q;1;0.5315790000022389;001;FSFW69;2019_Dec_19_1609;iat_vr;60.13999387691874;
7;BLUME;Natur;p;1;13;33;2;p;1;0.6521461999982421;001;FSFW69;2019_Dec_19_1609;iat_vr;60.13999387691874;
7;NEGATIV;negativ;q;1;14;34;12;q;1;0.898084899999958;001;FSFW69;2019_Dec_19_1609;iat_vr;60.13999387691874;
7;SCHLIMM;negativ;q;1;15;35;10;q;1;0.7973061000011512;001;FSFW69;2019_Dec_19_1609;iat_vr;60.13999387691874;
7;POSITIV;positiv;p;1;16;36;18;p;1;0.5805632000010519;001;FSFW69;2019_Dec_19_1609;iat_vr;60.13999387691874;
7;AUSGEZEICHNET;positiv;p;1;17;37;15;p;1;0.6630317000017385;001;FSFW69;2019_Dec_19_1609;iat_vr;60.13999387691874;
7;HERVORRAGEND;positiv;p;1;18;38;17;p;1;0.7852300000013201;001;FSFW69;2019_Dec_19_1609;iat_vr;60.13999387691874;
7;STEIN;Natur;p;1;19;39;4;p;1;0.5468345000008412;001;FSFW69;2019_Dec_19_1609;iat_vr;60.13999387691874;
;;;;;;;;;;;001;FSFW69;2019_Dec_19_1609;iat_vr;60.13999387691874;
