Block;Word;Category;CorrResp;trials.thisRepN;trials.thisTrialN;trials.thisN;trials.thisIndex;key_resp_2.keys;key_resp_2.corr;key_resp_2.rt;session;participant;date;expName;frameRate;
1;COMPUTER;Gemacht;p;0;0;0;8;p;1;0.7736028999788687;002;FSJM98;2019_Dec_02_0855;iat_vr;59.92505772421061;
1;KLEIDER;Gemacht;p;0;1;1;7;p;1;0.7209566000383347;002;FSJM98;2019_Dec_02_0855;iat_vr;59.92505772421061;
1;STEIN;Natur;q;0;2;2;4;q;1;0.5514566000201739;002;FSJM98;2019_Dec_02_0855;iat_vr;59.92505772421061;
1;STADT;Gemacht;p;0;3;3;6;q;0;0.6192527000093833;002;FSJM98;2019_Dec_02_0855;iat_vr;59.92505772421061;
1;WASSER;Natur;q;0;4;4;1;q;1;0.8854663000092842;002;FSJM98;2019_Dec_02_0855;iat_vr;59.92505772421061;
1;BAUM;Natur;q;0;5;5;0;q;1;0.6688468000502326;002;FSJM98;2019_Dec_02_0855;iat_vr;59.92505772421061;
1;GEBÄUDE;Gemacht;p;0;6;6;5;p;1;0.6746455000247806;002;FSJM98;2019_Dec_02_0855;iat_vr;59.92505772421061;
1;BLUME;Natur;q;0;7;7;2;q;1;0.5976109000039287;002;FSJM98;2019_Dec_02_0855;iat_vr;59.92505772421061;
1;TIER;Natur;q;0;8;8;3;q;1;0.7695372000453062;002;FSJM98;2019_Dec_02_0855;iat_vr;59.92505772421061;
1;LAMPE;Gemacht;p;0;9;9;9;p;1;0.7517253999831155;002;FSJM98;2019_Dec_02_0855;iat_vr;59.92505772421061;
1;BLUME;Natur;q;1;0;10;2;q;1;0.5785253000212833;002;FSJM98;2019_Dec_02_0855;iat_vr;59.92505772421061;
1;KLEIDER;Gemacht;p;1;1;11;7;p;1;0.6994291000301018;002;FSJM98;2019_Dec_02_0855;iat_vr;59.92505772421061;
1;STADT;Gemacht;p;1;2;12;6;p;1;0.7462947000167333;002;FSJM98;2019_Dec_02_0855;iat_vr;59.92505772421061;
1;BAUM;Natur;q;1;3;13;0;q;1;0.7195796000305563;002;FSJM98;2019_Dec_02_0855;iat_vr;59.92505772421061;
1;GEBÄUDE;Gemacht;p;1;4;14;5;p;1;0.633489899977576;002;FSJM98;2019_Dec_02_0855;iat_vr;59.92505772421061;
1;TIER;Natur;q;1;5;15;3;q;1;0.9008013000129722;002;FSJM98;2019_Dec_02_0855;iat_vr;59.92505772421061;
1;COMPUTER;Gemacht;p;1;6;16;8;p;1;0.7187303000246175;002;FSJM98;2019_Dec_02_0855;iat_vr;59.92505772421061;
1;WASSER;Natur;q;1;7;17;1;q;1;0.615803099994082;002;FSJM98;2019_Dec_02_0855;iat_vr;59.92505772421061;
1;STEIN;Natur;q;1;8;18;4;q;1;0.6643598999944516;002;FSJM98;2019_Dec_02_0855;iat_vr;59.92505772421061;
1;LAMPE;Gemacht;p;1;9;19;9;p;1;0.7804500000202097;002;FSJM98;2019_Dec_02_0855;iat_vr;59.92505772421061;
;;;;;;;;;;;002;FSJM98;2019_Dec_02_0855;iat_vr;59.92505772421061;
2;SCHÄDLICH;negativ;q;0;0;0;3;q;1;1.9463352000457235;002;FSJM98;2019_Dec_02_0855;iat_vr;59.92505772421061;
2;POSITIV;positiv;p;0;1;1;8;p;1;0.5850279000005685;002;FSJM98;2019_Dec_02_0855;iat_vr;59.92505772421061;
2;SCHLECHT;negativ;q;0;2;2;1;q;1;1.2977350000292063;002;FSJM98;2019_Dec_02_0855;iat_vr;59.92505772421061;
2;EINWANDFREI;positiv;p;0;3;3;6;p;1;0.8129488999838941;002;FSJM98;2019_Dec_02_0855;iat_vr;59.92505772421061;
2;HERVORRAGEND;positiv;p;0;4;4;7;p;1;0.7154589999699965;002;FSJM98;2019_Dec_02_0855;iat_vr;59.92505772421061;
2;AUSGEZEICHNET;positiv;p;0;5;5;5;p;1;0.5949851000332274;002;FSJM98;2019_Dec_02_0855;iat_vr;59.92505772421061;
2;SCHWACH;negativ;q;0;6;6;4;q;1;0.6522431999910623;002;FSJM98;2019_Dec_02_0855;iat_vr;59.92505772421061;
2;GUT;positiv;p;0;7;7;9;p;1;0.5133666000328958;002;FSJM98;2019_Dec_02_0855;iat_vr;59.92505772421061;
2;NEGATIV;negativ;q;0;8;8;2;q;1;0.5844475000048988;002;FSJM98;2019_Dec_02_0855;iat_vr;59.92505772421061;
2;SCHLIMM;negativ;q;0;9;9;0;q;1;0.6847508000209928;002;FSJM98;2019_Dec_02_0855;iat_vr;59.92505772421061;
2;SCHLECHT;negativ;q;1;0;10;1;q;1;0.5819672000361606;002;FSJM98;2019_Dec_02_0855;iat_vr;59.92505772421061;
2;POSITIV;positiv;p;1;1;11;8;p;1;0.814616100047715;002;FSJM98;2019_Dec_02_0855;iat_vr;59.92505772421061;
2;SCHLIMM;negativ;q;1;2;12;0;q;1;0.6488512000069022;002;FSJM98;2019_Dec_02_0855;iat_vr;59.92505772421061;
2;EINWANDFREI;positiv;p;1;3;13;6;p;1;0.6758390999748372;002;FSJM98;2019_Dec_02_0855;iat_vr;59.92505772421061;
2;SCHWACH;negativ;q;1;4;14;4;q;1;0.7516722000436857;002;FSJM98;2019_Dec_02_0855;iat_vr;59.92505772421061;
2;AUSGEZEICHNET;positiv;p;1;5;15;5;p;1;0.9353168000234291;002;FSJM98;2019_Dec_02_0855;iat_vr;59.92505772421061;
2;SCHÄDLICH;negativ;q;1;6;16;3;q;1;0.6993118000100367;002;FSJM98;2019_Dec_02_0855;iat_vr;59.92505772421061;
2;HERVORRAGEND;positiv;p;1;7;17;7;p;1;1.3140223000082187;002;FSJM98;2019_Dec_02_0855;iat_vr;59.92505772421061;
2;NEGATIV;negativ;q;1;8;18;2;q;1;0.616467299987562;002;FSJM98;2019_Dec_02_0855;iat_vr;59.92505772421061;
2;GUT;positiv;p;1;9;19;9;p;1;0.5174633000278845;002;FSJM98;2019_Dec_02_0855;iat_vr;59.92505772421061;
;;;;;;;;;;;002;FSJM98;2019_Dec_02_0855;iat_vr;59.92505772421061;
3;LAMPE;Gemacht;p;0;0;0;19;p;1;0.8408956000348553;002;FSJM98;2019_Dec_02_0855;iat_vr;59.92505772421061;
3;SCHÄDLICH;negativ;q;0;1;1;3;q;1;0.7035973999882117;002;FSJM98;2019_Dec_02_0855;iat_vr;59.92505772421061;
3;POSITIV;positiv;p;0;2;2;8;p;1;0.6514391000382602;002;FSJM98;2019_Dec_02_0855;iat_vr;59.92505772421061;
3;BLUME;Natur;q;0;3;3;12;q;1;0.7819447999936529;002;FSJM98;2019_Dec_02_0855;iat_vr;59.92505772421061;
3;BAUM;Natur;q;0;4;4;10;q;1;0.6478912999737076;002;FSJM98;2019_Dec_02_0855;iat_vr;59.92505772421061;
3;EINWANDFREI;positiv;p;0;5;5;6;p;1;0.7609739999752492;002;FSJM98;2019_Dec_02_0855;iat_vr;59.92505772421061;
3;SCHLIMM;negativ;q;0;6;6;0;q;1;0.6847136999713257;002;FSJM98;2019_Dec_02_0855;iat_vr;59.92505772421061;
3;GEBÄUDE;Gemacht;p;0;7;7;15;p;1;0.6689150000456721;002;FSJM98;2019_Dec_02_0855;iat_vr;59.92505772421061;
3;HERVORRAGEND;positiv;p;0;8;8;7;p;1;0.7766630999976769;002;FSJM98;2019_Dec_02_0855;iat_vr;59.92505772421061;
3;KLEIDER;Gemacht;p;0;9;9;17;p;1;0.7011613000067882;002;FSJM98;2019_Dec_02_0855;iat_vr;59.92505772421061;
3;SCHLECHT;negativ;q;0;10;10;1;q;1;0.7674370000022464;002;FSJM98;2019_Dec_02_0855;iat_vr;59.92505772421061;
3;SCHWACH;negativ;q;0;11;11;4;q;1;0.8119947999948636;002;FSJM98;2019_Dec_02_0855;iat_vr;59.92505772421061;
3;AUSGEZEICHNET;positiv;p;0;12;12;5;p;1;0.7185330999782309;002;FSJM98;2019_Dec_02_0855;iat_vr;59.92505772421061;
3;COMPUTER;Gemacht;p;0;13;13;18;p;1;0.7188698999816552;002;FSJM98;2019_Dec_02_0855;iat_vr;59.92505772421061;
3;NEGATIV;negativ;q;0;14;14;2;q;1;0.7668720000074245;002;FSJM98;2019_Dec_02_0855;iat_vr;59.92505772421061;
3;STEIN;Natur;q;0;15;15;14;q;1;0.5796804000274278;002;FSJM98;2019_Dec_02_0855;iat_vr;59.92505772421061;
3;GUT;positiv;p;0;16;16;9;q;0;0.6172973000211641;002;FSJM98;2019_Dec_02_0855;iat_vr;59.92505772421061;
3;TIER;Natur;q;0;17;17;13;q;1;0.7832291999948211;002;FSJM98;2019_Dec_02_0855;iat_vr;59.92505772421061;
3;STADT;Gemacht;p;0;18;18;16;p;1;0.6169997000251897;002;FSJM98;2019_Dec_02_0855;iat_vr;59.92505772421061;
3;WASSER;Natur;q;0;19;19;11;q;1;0.6517961999634281;002;FSJM98;2019_Dec_02_0855;iat_vr;59.92505772421061;
;;;;;;;;;;;002;FSJM98;2019_Dec_02_0855;iat_vr;59.92505772421061;
4;SCHLECHT;negativ;q;0;0;0;1;q;1;1.6368012999882922;002;FSJM98;2019_Dec_02_0855;iat_vr;59.92505772421061;
4;TIER;Natur;q;0;1;1;13;q;1;0.5987024999922141;002;FSJM98;2019_Dec_02_0855;iat_vr;59.92505772421061;
4;WASSER;Natur;q;0;2;2;11;q;1;0.7992597999982536;002;FSJM98;2019_Dec_02_0855;iat_vr;59.92505772421061;
4;GEBÄUDE;Gemacht;p;0;3;3;15;p;1;0.6013252999982797;002;FSJM98;2019_Dec_02_0855;iat_vr;59.92505772421061;
4;LAMPE;Gemacht;p;0;4;4;19;p;1;0.6497084000147879;002;FSJM98;2019_Dec_02_0855;iat_vr;59.92505772421061;
4;STADT;Gemacht;p;0;5;5;16;p;1;0.8844324999954551;002;FSJM98;2019_Dec_02_0855;iat_vr;59.92505772421061;
4;COMPUTER;Gemacht;p;0;6;6;18;p;1;0.7003999000298791;002;FSJM98;2019_Dec_02_0855;iat_vr;59.92505772421061;
4;GUT;positiv;p;0;7;7;9;p;1;0.715534699964337;002;FSJM98;2019_Dec_02_0855;iat_vr;59.92505772421061;
4;STEIN;Natur;q;0;8;8;14;q;1;0.646787800011225;002;FSJM98;2019_Dec_02_0855;iat_vr;59.92505772421061;
4;NEGATIV;negativ;q;0;9;9;2;q;1;0.8015183999668807;002;FSJM98;2019_Dec_02_0855;iat_vr;59.92505772421061;
4;EINWANDFREI;positiv;p;0;10;10;6;p;1;0.9676784999901429;002;FSJM98;2019_Dec_02_0855;iat_vr;59.92505772421061;
4;SCHÄDLICH;negativ;q;0;11;11;3;q;1;1.4019543000031263;002;FSJM98;2019_Dec_02_0855;iat_vr;59.92505772421061;
4;SCHWACH;negativ;q;0;12;12;4;q;1;0.7816494999569841;002;FSJM98;2019_Dec_02_0855;iat_vr;59.92505772421061;
4;POSITIV;positiv;p;0;13;13;8;p;1;0.6638623999897391;002;FSJM98;2019_Dec_02_0855;iat_vr;59.92505772421061;
4;SCHLIMM;negativ;q;0;14;14;0;q;1;0.8688572999672033;002;FSJM98;2019_Dec_02_0855;iat_vr;59.92505772421061;
4;AUSGEZEICHNET;positiv;p;0;15;15;5;p;1;0.7355079000117257;002;FSJM98;2019_Dec_02_0855;iat_vr;59.92505772421061;
4;HERVORRAGEND;positiv;p;0;16;16;7;p;1;0.8585654000053182;002;FSJM98;2019_Dec_02_0855;iat_vr;59.92505772421061;
4;BLUME;Natur;q;0;17;17;12;q;1;0.9969445999595337;002;FSJM98;2019_Dec_02_0855;iat_vr;59.92505772421061;
4;BAUM;Natur;q;0;18;18;10;q;1;0.7990961000323296;002;FSJM98;2019_Dec_02_0855;iat_vr;59.92505772421061;
4;KLEIDER;Gemacht;p;0;19;19;17;p;1;0.9292981999460608;002;FSJM98;2019_Dec_02_0855;iat_vr;59.92505772421061;
4;KLEIDER;Gemacht;p;1;0;20;17;p;1;0.7519490999984555;002;FSJM98;2019_Dec_02_0855;iat_vr;59.92505772421061;
4;GEBÄUDE;Gemacht;p;1;1;21;15;p;1;0.7975914999842644;002;FSJM98;2019_Dec_02_0855;iat_vr;59.92505772421061;
4;SCHWACH;negativ;q;1;2;22;4;q;1;1.0170566000160761;002;FSJM98;2019_Dec_02_0855;iat_vr;59.92505772421061;
4;EINWANDFREI;positiv;p;1;3;23;6;p;1;0.7330139999976382;002;FSJM98;2019_Dec_02_0855;iat_vr;59.92505772421061;
4;BAUM;Natur;q;1;4;24;10;q;1;0.7337473999941722;002;FSJM98;2019_Dec_02_0855;iat_vr;59.92505772421061;
4;LAMPE;Gemacht;p;1;5;25;19;p;1;0.7660352999810129;002;FSJM98;2019_Dec_02_0855;iat_vr;59.92505772421061;
4;SCHÄDLICH;negativ;q;1;6;26;3;q;1;1.2629003000329249;002;FSJM98;2019_Dec_02_0855;iat_vr;59.92505772421061;
4;POSITIV;positiv;p;1;7;27;8;p;1;1.6003300999873318;002;FSJM98;2019_Dec_02_0855;iat_vr;59.92505772421061;
4;SCHLECHT;negativ;q;1;8;28;1;q;1;0.717028199986089;002;FSJM98;2019_Dec_02_0855;iat_vr;59.92505772421061;
4;COMPUTER;Gemacht;p;1;9;29;18;p;1;0.7838376999716274;002;FSJM98;2019_Dec_02_0855;iat_vr;59.92505772421061;
4;TIER;Natur;q;1;10;30;13;q;1;0.7004163000383414;002;FSJM98;2019_Dec_02_0855;iat_vr;59.92505772421061;
4;STADT;Gemacht;p;1;11;31;16;p;1;0.8178651999915019;002;FSJM98;2019_Dec_02_0855;iat_vr;59.92505772421061;
4;WASSER;Natur;q;1;12;32;11;q;1;0.7503129999968223;002;FSJM98;2019_Dec_02_0855;iat_vr;59.92505772421061;
4;AUSGEZEICHNET;positiv;p;1;13;33;5;p;1;0.833924799982924;002;FSJM98;2019_Dec_02_0855;iat_vr;59.92505772421061;
4;HERVORRAGEND;positiv;p;1;14;34;7;p;1;0.6025440999655984;002;FSJM98;2019_Dec_02_0855;iat_vr;59.92505772421061;
4;STEIN;Natur;q;1;15;35;14;q;1;1.1835033999523148;002;FSJM98;2019_Dec_02_0855;iat_vr;59.92505772421061;
4;GUT;positiv;p;1;16;36;9;p;1;0.682950799993705;002;FSJM98;2019_Dec_02_0855;iat_vr;59.92505772421061;
4;SCHLIMM;negativ;q;1;17;37;0;q;1;0.6028263000189327;002;FSJM98;2019_Dec_02_0855;iat_vr;59.92505772421061;
4;BLUME;Natur;q;1;18;38;12;q;1;0.7333600999554619;002;FSJM98;2019_Dec_02_0855;iat_vr;59.92505772421061;
4;NEGATIV;negativ;q;1;19;39;2;q;1;0.9168728000367992;002;FSJM98;2019_Dec_02_0855;iat_vr;59.92505772421061;
;;;;;;;;;;;002;FSJM98;2019_Dec_02_0855;iat_vr;59.92505772421061;
5;BAUM;Natur;p;0;0;0;0;p;1;0.897034400026314;002;FSJM98;2019_Dec_02_0855;iat_vr;59.92505772421061;
5;TIER;Natur;p;0;1;1;3;p;1;0.7688883999944665;002;FSJM98;2019_Dec_02_0855;iat_vr;59.92505772421061;
5;KLEIDER;Gemacht;q;0;2;2;7;q;1;0.7458882999490015;002;FSJM98;2019_Dec_02_0855;iat_vr;59.92505772421061;
5;STADT;Gemacht;q;0;3;3;6;q;1;0.8869225000380538;002;FSJM98;2019_Dec_02_0855;iat_vr;59.92505772421061;
5;WASSER;Natur;p;0;4;4;1;p;1;0.6506516999797896;002;FSJM98;2019_Dec_02_0855;iat_vr;59.92505772421061;
5;LAMPE;Gemacht;q;0;5;5;9;q;1;0.8831049999571405;002;FSJM98;2019_Dec_02_0855;iat_vr;59.92505772421061;
5;BLUME;Natur;p;0;6;6;2;p;1;0.7329545000102371;002;FSJM98;2019_Dec_02_0855;iat_vr;59.92505772421061;
5;GEBÄUDE;Gemacht;q;0;7;7;5;q;1;1.1342728000017814;002;FSJM98;2019_Dec_02_0855;iat_vr;59.92505772421061;
5;STEIN;Natur;p;0;8;8;4;p;1;0.8013657999690622;002;FSJM98;2019_Dec_02_0855;iat_vr;59.92505772421061;
5;COMPUTER;Gemacht;q;0;9;9;8;q;1;0.9316531999502331;002;FSJM98;2019_Dec_02_0855;iat_vr;59.92505772421061;
5;BLUME;Natur;p;1;0;10;2;p;1;0.7504922999651171;002;FSJM98;2019_Dec_02_0855;iat_vr;59.92505772421061;
5;LAMPE;Gemacht;q;1;1;11;9;q;1;0.9168338000308722;002;FSJM98;2019_Dec_02_0855;iat_vr;59.92505772421061;
5;BAUM;Natur;p;1;2;12;0;p;1;0.650184900034219;002;FSJM98;2019_Dec_02_0855;iat_vr;59.92505772421061;
5;COMPUTER;Gemacht;q;1;3;13;8;q;1;0.6350085000158288;002;FSJM98;2019_Dec_02_0855;iat_vr;59.92505772421061;
5;TIER;Natur;p;1;4;14;3;p;1;0.618156699987594;002;FSJM98;2019_Dec_02_0855;iat_vr;59.92505772421061;
5;STEIN;Natur;p;1;5;15;4;p;1;0.6305934999836609;002;FSJM98;2019_Dec_02_0855;iat_vr;59.92505772421061;
5;KLEIDER;Gemacht;q;1;6;16;7;q;1;0.6620961999869905;002;FSJM98;2019_Dec_02_0855;iat_vr;59.92505772421061;
5;STADT;Gemacht;q;1;7;17;6;q;1;0.7357159999664873;002;FSJM98;2019_Dec_02_0855;iat_vr;59.92505772421061;
5;GEBÄUDE;Gemacht;q;1;8;18;5;q;1;0.7311931999865919;002;FSJM98;2019_Dec_02_0855;iat_vr;59.92505772421061;
5;WASSER;Natur;p;1;9;19;1;p;1;0.69570099998964;002;FSJM98;2019_Dec_02_0855;iat_vr;59.92505772421061;
;;;;;;;;;;;002;FSJM98;2019_Dec_02_0855;iat_vr;59.92505772421061;
6;GEBÄUDE;Gemacht;q;0;0;0;5;q;1;0.9719442999921739;002;FSJM98;2019_Dec_02_0855;iat_vr;59.92505772421061;
6;SCHLECHT;negativ;q;0;1;1;11;q;1;0.6846299999742769;002;FSJM98;2019_Dec_02_0855;iat_vr;59.92505772421061;
6;POSITIV;positiv;p;0;2;2;18;p;1;0.6154591999948025;002;FSJM98;2019_Dec_02_0855;iat_vr;59.92505772421061;
6;BAUM;Natur;p;0;3;3;0;p;1;0.7500178999616764;002;FSJM98;2019_Dec_02_0855;iat_vr;59.92505772421061;
6;STEIN;Natur;p;0;4;4;4;p;1;2.4474280999857;002;FSJM98;2019_Dec_02_0855;iat_vr;59.92505772421061;
6;SCHLIMM;negativ;q;0;5;5;10;q;1;0.8805843999725766;002;FSJM98;2019_Dec_02_0855;iat_vr;59.92505772421061;
6;GUT;positiv;p;0;6;6;19;p;1;0.6846624000463635;002;FSJM98;2019_Dec_02_0855;iat_vr;59.92505772421061;
6;HERVORRAGEND;positiv;p;0;7;7;17;p;1;0.7271556999767199;002;FSJM98;2019_Dec_02_0855;iat_vr;59.92505772421061;
6;NEGATIV;negativ;q;0;8;8;12;q;1;0.6975310000125319;002;FSJM98;2019_Dec_02_0855;iat_vr;59.92505772421061;
6;BLUME;Natur;p;0;9;9;2;p;1;0.6354502000031061;002;FSJM98;2019_Dec_02_0855;iat_vr;59.92505772421061;
6;COMPUTER;Gemacht;q;0;10;10;8;q;1;0.6141914000036195;002;FSJM98;2019_Dec_02_0855;iat_vr;59.92505772421061;
6;WASSER;Natur;p;0;11;11;1;p;1;0.8125631000148132;002;FSJM98;2019_Dec_02_0855;iat_vr;59.92505772421061;
6;STADT;Gemacht;q;0;12;12;6;q;1;0.5492844000109471;002;FSJM98;2019_Dec_02_0855;iat_vr;59.92505772421061;
6;KLEIDER;Gemacht;q;0;13;13;7;q;1;1.3620339999906719;002;FSJM98;2019_Dec_02_0855;iat_vr;59.92505772421061;
6;SCHWACH;negativ;q;0;14;14;14;p;0;0.9673516000038944;002;FSJM98;2019_Dec_02_0855;iat_vr;59.92505772421061;
6;EINWANDFREI;positiv;p;0;15;15;16;p;1;0.815076400001999;002;FSJM98;2019_Dec_02_0855;iat_vr;59.92505772421061;
6;LAMPE;Gemacht;q;0;16;16;9;q;1;0.9628242999897338;002;FSJM98;2019_Dec_02_0855;iat_vr;59.92505772421061;
6;SCHÄDLICH;negativ;q;0;17;17;13;p;0;0.9014606000273488;002;FSJM98;2019_Dec_02_0855;iat_vr;59.92505772421061;
6;TIER;Natur;p;0;18;18;3;p;1;0.9769826999981888;002;FSJM98;2019_Dec_02_0855;iat_vr;59.92505772421061;
6;AUSGEZEICHNET;positiv;p;0;19;19;15;p;1;0.7683354999753647;002;FSJM98;2019_Dec_02_0855;iat_vr;59.92505772421061;
;;;;;;;;;;;002;FSJM98;2019_Dec_02_0855;iat_vr;59.92505772421061;
7;SCHLIMM;negativ;q;0;0;0;10;q;1;0.9176655999617651;002;FSJM98;2019_Dec_02_0855;iat_vr;59.92505772421061;
7;COMPUTER;Gemacht;q;0;1;1;8;q;1;0.9345204000128433;002;FSJM98;2019_Dec_02_0855;iat_vr;59.92505772421061;
7;SCHLECHT;negativ;q;0;2;2;11;q;1;0.9313032000209205;002;FSJM98;2019_Dec_02_0855;iat_vr;59.92505772421061;
7;SCHWACH;negativ;q;0;3;3;14;q;1;0.6954550000373274;002;FSJM98;2019_Dec_02_0855;iat_vr;59.92505772421061;
7;NEGATIV;negativ;q;0;4;4;12;q;1;0.8854606000240892;002;FSJM98;2019_Dec_02_0855;iat_vr;59.92505772421061;
7;WASSER;Natur;p;0;5;5;1;p;1;0.7685966999852099;002;FSJM98;2019_Dec_02_0855;iat_vr;59.92505772421061;
7;GEBÄUDE;Gemacht;q;0;6;6;5;q;1;0.7639034000458196;002;FSJM98;2019_Dec_02_0855;iat_vr;59.92505772421061;
7;STEIN;Natur;p;0;7;7;4;p;1;0.8627927000052296;002;FSJM98;2019_Dec_02_0855;iat_vr;59.92505772421061;
7;KLEIDER;Gemacht;q;0;8;8;7;q;1;1.4847214000183158;002;FSJM98;2019_Dec_02_0855;iat_vr;59.92505772421061;
7;HERVORRAGEND;positiv;p;0;9;9;17;p;1;1.1096444000140764;002;FSJM98;2019_Dec_02_0855;iat_vr;59.92505772421061;
7;BAUM;Natur;p;0;10;10;0;p;1;0.8838360999943689;002;FSJM98;2019_Dec_02_0855;iat_vr;59.92505772421061;
7;BLUME;Natur;p;0;11;11;2;p;1;0.7672137999907136;002;FSJM98;2019_Dec_02_0855;iat_vr;59.92505772421061;
7;STADT;Gemacht;q;0;12;12;6;q;1;0.6686406999942847;002;FSJM98;2019_Dec_02_0855;iat_vr;59.92505772421061;
7;LAMPE;Gemacht;q;0;13;13;9;q;1;0.634304599952884;002;FSJM98;2019_Dec_02_0855;iat_vr;59.92505772421061;
7;POSITIV;positiv;p;0;14;14;18;p;1;2.0494249000330456;002;FSJM98;2019_Dec_02_0855;iat_vr;59.92505772421061;
7;AUSGEZEICHNET;positiv;p;0;15;15;15;p;1;0.8442059999797493;002;FSJM98;2019_Dec_02_0855;iat_vr;59.92505772421061;
7;TIER;Natur;p;0;16;16;3;p;1;0.5466093000140972;002;FSJM98;2019_Dec_02_0855;iat_vr;59.92505772421061;
7;GUT;positiv;p;0;17;17;19;p;1;0.6469997999956831;002;FSJM98;2019_Dec_02_0855;iat_vr;59.92505772421061;
7;EINWANDFREI;positiv;p;0;18;18;16;p;1;0.6828018000232987;002;FSJM98;2019_Dec_02_0855;iat_vr;59.92505772421061;
7;SCHÄDLICH;negativ;q;0;19;19;13;q;1;0.7128605000325479;002;FSJM98;2019_Dec_02_0855;iat_vr;59.92505772421061;
7;HERVORRAGEND;positiv;p;1;0;20;17;p;1;0.9991953000426292;002;FSJM98;2019_Dec_02_0855;iat_vr;59.92505772421061;
7;POSITIV;positiv;p;1;1;21;18;p;1;1.6967199000064284;002;FSJM98;2019_Dec_02_0855;iat_vr;59.92505772421061;
7;SCHLIMM;negativ;q;1;2;22;10;q;1;0.6333706000004895;002;FSJM98;2019_Dec_02_0855;iat_vr;59.92505772421061;
7;GEBÄUDE;Gemacht;q;1;3;23;5;q;1;0.6000273999525234;002;FSJM98;2019_Dec_02_0855;iat_vr;59.92505772421061;
7;NEGATIV;negativ;q;1;4;24;12;q;1;0.968754900037311;002;FSJM98;2019_Dec_02_0855;iat_vr;59.92505772421061;
7;WASSER;Natur;p;1;5;25;1;p;1;0.7662229999550618;002;FSJM98;2019_Dec_02_0855;iat_vr;59.92505772421061;
7;SCHLECHT;negativ;q;1;6;26;11;q;1;0.7270111000398174;002;FSJM98;2019_Dec_02_0855;iat_vr;59.92505772421061;
7;GUT;positiv;p;1;7;27;19;p;1;0.6018013000139035;002;FSJM98;2019_Dec_02_0855;iat_vr;59.92505772421061;
7;EINWANDFREI;positiv;p;1;8;28;16;p;1;0.8290615000296384;002;FSJM98;2019_Dec_02_0855;iat_vr;59.92505772421061;
7;STEIN;Natur;p;1;9;29;4;p;1;0.9967571000452153;002;FSJM98;2019_Dec_02_0855;iat_vr;59.92505772421061;
7;BAUM;Natur;p;1;10;30;0;p;1;0.6351040999870747;002;FSJM98;2019_Dec_02_0855;iat_vr;59.92505772421061;
7;SCHÄDLICH;negativ;q;1;11;31;13;q;1;0.7356992000131868;002;FSJM98;2019_Dec_02_0855;iat_vr;59.92505772421061;
7;LAMPE;Gemacht;q;1;12;32;9;q;1;0.6476948999916203;002;FSJM98;2019_Dec_02_0855;iat_vr;59.92505772421061;
7;COMPUTER;Gemacht;q;1;13;33;8;q;1;0.7626302000135183;002;FSJM98;2019_Dec_02_0855;iat_vr;59.92505772421061;
7;SCHWACH;negativ;q;1;14;34;14;q;1;0.9180462999502197;002;FSJM98;2019_Dec_02_0855;iat_vr;59.92505772421061;
7;AUSGEZEICHNET;positiv;p;1;15;35;15;p;1;0.758456900017336;002;FSJM98;2019_Dec_02_0855;iat_vr;59.92505772421061;
7;BLUME;Natur;p;1;16;36;2;p;1;0.9498100999626331;002;FSJM98;2019_Dec_02_0855;iat_vr;59.92505772421061;
7;STADT;Gemacht;q;1;17;37;6;q;1;0.6980019999900833;002;FSJM98;2019_Dec_02_0855;iat_vr;59.92505772421061;
7;TIER;Natur;p;1;18;38;3;p;1;0.7353876999695785;002;FSJM98;2019_Dec_02_0855;iat_vr;59.92505772421061;
7;KLEIDER;Gemacht;q;1;19;39;7;q;1;0.8343059999751858;002;FSJM98;2019_Dec_02_0855;iat_vr;59.92505772421061;
;;;;;;;;;;;002;FSJM98;2019_Dec_02_0855;iat_vr;59.92505772421061;
