Block;Word;Category;CorrResp;trials.thisRepN;trials.thisTrialN;trials.thisN;trials.thisIndex;key_resp_2.keys;key_resp_2.corr;key_resp_2.rt;session;participant;date;expName;frameRate;
1;GEBÄUDE;Gemacht;p;0;0;0;5;p;1;1.3010651000076905;001;FSJM98;2019_Dec_02_0836;iat_vr;60.02076718286812;
1;BAUM;Natur;q;0;1;1;0;q;1;0.7424505000235513;001;FSJM98;2019_Dec_02_0836;iat_vr;60.02076718286812;
1;TIER;Natur;q;0;2;2;3;q;1;0.7005187000031583;001;FSJM98;2019_Dec_02_0836;iat_vr;60.02076718286812;
1;LAMPE;Gemacht;p;0;3;3;9;p;1;0.6237118999706581;001;FSJM98;2019_Dec_02_0836;iat_vr;60.02076718286812;
1;COMPUTER;Gemacht;p;0;4;4;8;p;1;0.6579490999574773;001;FSJM98;2019_Dec_02_0836;iat_vr;60.02076718286812;
1;KLEIDER;Gemacht;p;0;5;5;7;p;1;0.7353304999996908;001;FSJM98;2019_Dec_02_0836;iat_vr;60.02076718286812;
1;STEIN;Natur;q;0;6;6;4;q;1;0.6756034000427462;001;FSJM98;2019_Dec_02_0836;iat_vr;60.02076718286812;
1;BLUME;Natur;q;0;7;7;2;q;1;0.7162293000146747;001;FSJM98;2019_Dec_02_0836;iat_vr;60.02076718286812;
1;WASSER;Natur;q;0;8;8;1;q;1;0.5693009999813512;001;FSJM98;2019_Dec_02_0836;iat_vr;60.02076718286812;
1;STADT;Gemacht;p;0;9;9;6;p;1;0.5820662000332959;001;FSJM98;2019_Dec_02_0836;iat_vr;60.02076718286812;
1;WASSER;Natur;q;1;0;10;1;q;1;0.5979953999631107;001;FSJM98;2019_Dec_02_0836;iat_vr;60.02076718286812;
1;KLEIDER;Gemacht;p;1;1;11;7;p;1;0.6189457000000402;001;FSJM98;2019_Dec_02_0836;iat_vr;60.02076718286812;
1;COMPUTER;Gemacht;p;1;2;12;8;p;1;0.6615250000031665;001;FSJM98;2019_Dec_02_0836;iat_vr;60.02076718286812;
1;STADT;Gemacht;p;1;3;13;6;p;1;0.6348864999599755;001;FSJM98;2019_Dec_02_0836;iat_vr;60.02076718286812;
1;LAMPE;Gemacht;p;1;4;14;9;p;1;0.5498291000258178;001;FSJM98;2019_Dec_02_0836;iat_vr;60.02076718286812;
1;STEIN;Natur;q;1;5;15;4;q;1;0.7180316000012681;001;FSJM98;2019_Dec_02_0836;iat_vr;60.02076718286812;
1;TIER;Natur;q;1;6;16;3;q;1;0.5476732999668457;001;FSJM98;2019_Dec_02_0836;iat_vr;60.02076718286812;
1;BLUME;Natur;q;1;7;17;2;q;1;0.6004177999566309;001;FSJM98;2019_Dec_02_0836;iat_vr;60.02076718286812;
1;GEBÄUDE;Gemacht;p;1;8;18;5;p;1;0.6797783999936655;001;FSJM98;2019_Dec_02_0836;iat_vr;60.02076718286812;
1;BAUM;Natur;q;1;9;19;0;q;1;0.5480360999936238;001;FSJM98;2019_Dec_02_0836;iat_vr;60.02076718286812;
;;;;;;;;;;;001;FSJM98;2019_Dec_02_0836;iat_vr;60.02076718286812;
2;GUT;positiv;p;0;0;0;9;p;1;1.1925903999945149;001;FSJM98;2019_Dec_02_0836;iat_vr;60.02076718286812;
2;NEGATIV;negativ;q;0;1;1;2;q;1;0.5780353000154719;001;FSJM98;2019_Dec_02_0836;iat_vr;60.02076718286812;
2;EINWANDFREI;positiv;p;0;2;2;6;p;1;1.0745778999989852;001;FSJM98;2019_Dec_02_0836;iat_vr;60.02076718286812;
2;AUSGEZEICHNET;positiv;p;0;3;3;5;p;1;0.8382606999948621;001;FSJM98;2019_Dec_02_0836;iat_vr;60.02076718286812;
2;SCHLIMM;negativ;q;0;4;4;0;q;1;0.6461297000059858;001;FSJM98;2019_Dec_02_0836;iat_vr;60.02076718286812;
2;HERVORRAGEND;positiv;p;0;5;5;7;p;1;0.708349900029134;001;FSJM98;2019_Dec_02_0836;iat_vr;60.02076718286812;
2;SCHÄDLICH;negativ;q;0;6;6;3;q;1;0.6284815999679267;001;FSJM98;2019_Dec_02_0836;iat_vr;60.02076718286812;
2;POSITIV;positiv;p;0;7;7;8;p;1;0.6902009000186808;001;FSJM98;2019_Dec_02_0836;iat_vr;60.02076718286812;
2;SCHLECHT;negativ;q;0;8;8;1;q;1;0.5282450999948196;001;FSJM98;2019_Dec_02_0836;iat_vr;60.02076718286812;
2;SCHWACH;negativ;q;0;9;9;4;q;1;0.9026355000096373;001;FSJM98;2019_Dec_02_0836;iat_vr;60.02076718286812;
2;HERVORRAGEND;positiv;p;1;0;10;7;p;1;0.8780169999809004;001;FSJM98;2019_Dec_02_0836;iat_vr;60.02076718286812;
2;SCHWACH;negativ;q;1;1;11;4;q;1;0.8955405000015162;001;FSJM98;2019_Dec_02_0836;iat_vr;60.02076718286812;
2;SCHLECHT;negativ;q;1;2;12;1;q;1;0.966405900020618;001;FSJM98;2019_Dec_02_0836;iat_vr;60.02076718286812;
2;GUT;positiv;p;1;3;13;9;p;1;0.5465036000241525;001;FSJM98;2019_Dec_02_0836;iat_vr;60.02076718286812;
2;SCHLIMM;negativ;q;1;4;14;0;q;1;1.2353919000015594;001;FSJM98;2019_Dec_02_0836;iat_vr;60.02076718286812;
2;NEGATIV;negativ;q;1;5;15;2;q;1;0.5123928000102751;001;FSJM98;2019_Dec_02_0836;iat_vr;60.02076718286812;
2;EINWANDFREI;positiv;p;1;6;16;6;p;1;0.5767495000036433;001;FSJM98;2019_Dec_02_0836;iat_vr;60.02076718286812;
2;AUSGEZEICHNET;positiv;p;1;7;17;5;p;1;0.7344295000075363;001;FSJM98;2019_Dec_02_0836;iat_vr;60.02076718286812;
2;SCHÄDLICH;negativ;q;1;8;18;3;q;1;0.7445701999822631;001;FSJM98;2019_Dec_02_0836;iat_vr;60.02076718286812;
2;POSITIV;positiv;p;1;9;19;8;p;1;0.7145228000008501;001;FSJM98;2019_Dec_02_0836;iat_vr;60.02076718286812;
;;;;;;;;;;;001;FSJM98;2019_Dec_02_0836;iat_vr;60.02076718286812;
3;SCHÄDLICH;negativ;q;0;0;0;3;q;1;1.3473388000275008;001;FSJM98;2019_Dec_02_0836;iat_vr;60.02076718286812;
3;HERVORRAGEND;positiv;p;0;1;1;7;p;1;1.029324600007385;001;FSJM98;2019_Dec_02_0836;iat_vr;60.02076718286812;
3;TIER;Natur;q;0;2;2;13;q;1;1.0352181000052951;001;FSJM98;2019_Dec_02_0836;iat_vr;60.02076718286812;
3;STEIN;Natur;q;0;3;3;14;q;1;0.7305989000014961;001;FSJM98;2019_Dec_02_0836;iat_vr;60.02076718286812;
3;POSITIV;positiv;p;0;4;4;8;p;1;0.876315200002864;001;FSJM98;2019_Dec_02_0836;iat_vr;60.02076718286812;
3;LAMPE;Gemacht;p;0;5;5;19;p;1;1.0506596000050195;001;FSJM98;2019_Dec_02_0836;iat_vr;60.02076718286812;
3;STADT;Gemacht;p;0;6;6;16;p;1;0.7672090000123717;001;FSJM98;2019_Dec_02_0836;iat_vr;60.02076718286812;
3;COMPUTER;Gemacht;p;0;7;7;18;q;0;1.3940923000336625;001;FSJM98;2019_Dec_02_0836;iat_vr;60.02076718286812;
3;BAUM;Natur;q;0;8;8;10;q;1;0.885517799993977;001;FSJM98;2019_Dec_02_0836;iat_vr;60.02076718286812;
3;WASSER;Natur;q;0;9;9;11;q;1;0.7297105999896303;001;FSJM98;2019_Dec_02_0836;iat_vr;60.02076718286812;
3;EINWANDFREI;positiv;p;0;10;10;6;p;1;1.3592226000037044;001;FSJM98;2019_Dec_02_0836;iat_vr;60.02076718286812;
3;SCHWACH;negativ;q;0;11;11;4;q;1;0.7022895999834873;001;FSJM98;2019_Dec_02_0836;iat_vr;60.02076718286812;
3;AUSGEZEICHNET;positiv;p;0;12;12;5;p;1;1.414118700020481;001;FSJM98;2019_Dec_02_0836;iat_vr;60.02076718286812;
3;GUT;positiv;p;0;13;13;9;p;1;0.7499086000025272;001;FSJM98;2019_Dec_02_0836;iat_vr;60.02076718286812;
3;KLEIDER;Gemacht;p;0;14;14;17;p;1;0.8807201000163332;001;FSJM98;2019_Dec_02_0836;iat_vr;60.02076718286812;
3;NEGATIV;negativ;q;0;15;15;2;q;1;0.845629999996163;001;FSJM98;2019_Dec_02_0836;iat_vr;60.02076718286812;
3;GEBÄUDE;Gemacht;p;0;16;16;15;p;1;0.8356572999618948;001;FSJM98;2019_Dec_02_0836;iat_vr;60.02076718286812;
3;BLUME;Natur;q;0;17;17;12;q;1;0.6349519999930635;001;FSJM98;2019_Dec_02_0836;iat_vr;60.02076718286812;
3;SCHLECHT;negativ;q;0;18;18;1;q;1;0.747858399990946;001;FSJM98;2019_Dec_02_0836;iat_vr;60.02076718286812;
3;SCHLIMM;negativ;q;0;19;19;0;q;1;0.8959543000091799;001;FSJM98;2019_Dec_02_0836;iat_vr;60.02076718286812;
;;;;;;;;;;;001;FSJM98;2019_Dec_02_0836;iat_vr;60.02076718286812;
4;GEBÄUDE;Gemacht;p;0;0;0;15;p;1;1.4023218000074849;001;FSJM98;2019_Dec_02_0836;iat_vr;60.02076718286812;
4;POSITIV;positiv;p;0;1;1;8;p;1;0.6511558999773115;001;FSJM98;2019_Dec_02_0836;iat_vr;60.02076718286812;
4;SCHÄDLICH;negativ;q;0;2;2;3;q;1;0.7965660000336356;001;FSJM98;2019_Dec_02_0836;iat_vr;60.02076718286812;
4;SCHLIMM;negativ;q;0;3;3;0;q;1;0.9237363999709487;001;FSJM98;2019_Dec_02_0836;iat_vr;60.02076718286812;
4;SCHWACH;negativ;q;0;4;4;4;q;1;0.596861700003501;001;FSJM98;2019_Dec_02_0836;iat_vr;60.02076718286812;
4;WASSER;Natur;q;0;5;5;11;q;1;1.080543099960778;001;FSJM98;2019_Dec_02_0836;iat_vr;60.02076718286812;
4;KLEIDER;Gemacht;p;0;6;6;17;p;1;1.4805876999744214;001;FSJM98;2019_Dec_02_0836;iat_vr;60.02076718286812;
4;LAMPE;Gemacht;p;0;7;7;19;p;1;0.6314598000026308;001;FSJM98;2019_Dec_02_0836;iat_vr;60.02076718286812;
4;AUSGEZEICHNET;positiv;p;0;8;8;5;p;1;1.1629182000178844;001;FSJM98;2019_Dec_02_0836;iat_vr;60.02076718286812;
4;GUT;positiv;p;0;9;9;9;p;1;0.6022347999969497;001;FSJM98;2019_Dec_02_0836;iat_vr;60.02076718286812;
4;BAUM;Natur;q;0;10;10;10;q;1;0.8322239999542944;001;FSJM98;2019_Dec_02_0836;iat_vr;60.02076718286812;
4;NEGATIV;negativ;q;0;11;11;2;q;1;0.545005600026343;001;FSJM98;2019_Dec_02_0836;iat_vr;60.02076718286812;
4;STADT;Gemacht;p;0;12;12;16;p;1;1.0121097000082955;001;FSJM98;2019_Dec_02_0836;iat_vr;60.02076718286812;
4;STEIN;Natur;q;0;13;13;14;q;1;0.8469955999753438;001;FSJM98;2019_Dec_02_0836;iat_vr;60.02076718286812;
4;HERVORRAGEND;positiv;p;0;14;14;7;p;1;0.7608422000193968;001;FSJM98;2019_Dec_02_0836;iat_vr;60.02076718286812;
4;TIER;Natur;q;0;15;15;13;q;1;0.898179900017567;001;FSJM98;2019_Dec_02_0836;iat_vr;60.02076718286812;
4;SCHLECHT;negativ;q;0;16;16;1;q;1;1.8781226000282913;001;FSJM98;2019_Dec_02_0836;iat_vr;60.02076718286812;
4;BLUME;Natur;q;0;17;17;12;q;1;0.6521119000390172;001;FSJM98;2019_Dec_02_0836;iat_vr;60.02076718286812;
4;EINWANDFREI;positiv;p;0;18;18;6;p;1;0.7927877999609336;001;FSJM98;2019_Dec_02_0836;iat_vr;60.02076718286812;
4;COMPUTER;Gemacht;p;0;19;19;18;p;1;0.6460157000110485;001;FSJM98;2019_Dec_02_0836;iat_vr;60.02076718286812;
4;AUSGEZEICHNET;positiv;p;1;0;20;5;p;1;1.3625339000136591;001;FSJM98;2019_Dec_02_0836;iat_vr;60.02076718286812;
4;SCHWACH;negativ;q;1;1;21;4;q;1;0.584473600029014;001;FSJM98;2019_Dec_02_0836;iat_vr;60.02076718286812;
4;KLEIDER;Gemacht;p;1;2;22;17;p;1;0.7283354999963194;001;FSJM98;2019_Dec_02_0836;iat_vr;60.02076718286812;
4;STADT;Gemacht;p;1;3;23;16;p;1;0.6626939999987371;001;FSJM98;2019_Dec_02_0836;iat_vr;60.02076718286812;
4;STEIN;Natur;q;1;4;24;14;q;1;0.6170078000286594;001;FSJM98;2019_Dec_02_0836;iat_vr;60.02076718286812;
4;COMPUTER;Gemacht;p;1;5;25;18;p;1;1.3022507000132464;001;FSJM98;2019_Dec_02_0836;iat_vr;60.02076718286812;
4;WASSER;Natur;q;1;6;26;11;q;1;0.5603695000172593;001;FSJM98;2019_Dec_02_0836;iat_vr;60.02076718286812;
4;SCHLIMM;negativ;q;1;7;27;0;q;1;0.9023936999728903;001;FSJM98;2019_Dec_02_0836;iat_vr;60.02076718286812;
4;NEGATIV;negativ;q;1;8;28;2;q;1;0.6021470000268891;001;FSJM98;2019_Dec_02_0836;iat_vr;60.02076718286812;
4;GEBÄUDE;Gemacht;p;1;9;29;15;p;1;0.6824094000039622;001;FSJM98;2019_Dec_02_0836;iat_vr;60.02076718286812;
4;SCHÄDLICH;negativ;q;1;10;30;3;p;0;0.7788933999836445;001;FSJM98;2019_Dec_02_0836;iat_vr;60.02076718286812;
4;LAMPE;Gemacht;p;1;11;31;19;p;1;1.465057599998545;001;FSJM98;2019_Dec_02_0836;iat_vr;60.02076718286812;
4;BLUME;Natur;q;1;12;32;12;q;1;0.6516264999518171;001;FSJM98;2019_Dec_02_0836;iat_vr;60.02076718286812;
4;GUT;positiv;p;1;13;33;9;p;1;1.5137086999602616;001;FSJM98;2019_Dec_02_0836;iat_vr;60.02076718286812;
4;BAUM;Natur;q;1;14;34;10;q;1;0.752281800028868;001;FSJM98;2019_Dec_02_0836;iat_vr;60.02076718286812;
4;TIER;Natur;q;1;15;35;13;q;1;0.6967722999979742;001;FSJM98;2019_Dec_02_0836;iat_vr;60.02076718286812;
4;EINWANDFREI;positiv;p;1;16;36;6;p;1;1.2356953999842517;001;FSJM98;2019_Dec_02_0836;iat_vr;60.02076718286812;
4;HERVORRAGEND;positiv;p;1;17;37;7;p;1;0.843602099979762;001;FSJM98;2019_Dec_02_0836;iat_vr;60.02076718286812;
4;SCHLECHT;negativ;q;1;18;38;1;q;1;1.1018036000314169;001;FSJM98;2019_Dec_02_0836;iat_vr;60.02076718286812;
4;POSITIV;positiv;p;1;19;39;8;q;0;0.48214789998019114;001;FSJM98;2019_Dec_02_0836;iat_vr;60.02076718286812;
;;;;;;;;;;;001;FSJM98;2019_Dec_02_0836;iat_vr;60.02076718286812;
5;STEIN;Natur;p;0;0;0;4;p;1;1.5273600000073202;001;FSJM98;2019_Dec_02_0836;iat_vr;60.02076718286812;
5;KLEIDER;Gemacht;q;0;1;1;7;q;1;0.8871599999838509;001;FSJM98;2019_Dec_02_0836;iat_vr;60.02076718286812;
5;TIER;Natur;p;0;2;2;3;p;1;1.019127799954731;001;FSJM98;2019_Dec_02_0836;iat_vr;60.02076718286812;
5;COMPUTER;Gemacht;q;0;3;3;8;q;1;2.0834124000393786;001;FSJM98;2019_Dec_02_0836;iat_vr;60.02076718286812;
5;STADT;Gemacht;q;0;4;4;6;q;1;1.0622552999993786;001;FSJM98;2019_Dec_02_0836;iat_vr;60.02076718286812;
5;GEBÄUDE;Gemacht;q;0;5;5;5;q;1;0.9339461000054143;001;FSJM98;2019_Dec_02_0836;iat_vr;60.02076718286812;
5;BAUM;Natur;p;0;6;6;0;p;1;0.6505013999994844;001;FSJM98;2019_Dec_02_0836;iat_vr;60.02076718286812;
5;LAMPE;Gemacht;q;0;7;7;9;q;1;0.719253099989146;001;FSJM98;2019_Dec_02_0836;iat_vr;60.02076718286812;
5;BLUME;Natur;p;0;8;8;2;p;1;0.5976756000309251;001;FSJM98;2019_Dec_02_0836;iat_vr;60.02076718286812;
5;WASSER;Natur;p;0;9;9;1;p;1;0.7634277000324801;001;FSJM98;2019_Dec_02_0836;iat_vr;60.02076718286812;
5;BAUM;Natur;p;1;0;10;0;p;1;0.7469096000422724;001;FSJM98;2019_Dec_02_0836;iat_vr;60.02076718286812;
5;BLUME;Natur;p;1;1;11;2;p;1;0.7346199000021443;001;FSJM98;2019_Dec_02_0836;iat_vr;60.02076718286812;
5;WASSER;Natur;p;1;2;12;1;p;1;0.6774173000012524;001;FSJM98;2019_Dec_02_0836;iat_vr;60.02076718286812;
5;KLEIDER;Gemacht;q;1;3;13;7;q;1;0.6507851000060327;001;FSJM98;2019_Dec_02_0836;iat_vr;60.02076718286812;
5;STEIN;Natur;p;1;4;14;4;p;1;0.6136270000133663;001;FSJM98;2019_Dec_02_0836;iat_vr;60.02076718286812;
5;GEBÄUDE;Gemacht;q;1;5;15;5;q;1;0.6459583999821916;001;FSJM98;2019_Dec_02_0836;iat_vr;60.02076718286812;
5;TIER;Natur;p;1;6;16;3;p;1;0.7503588999970816;001;FSJM98;2019_Dec_02_0836;iat_vr;60.02076718286812;
5;COMPUTER;Gemacht;q;1;7;17;8;q;1;0.9345338999992236;001;FSJM98;2019_Dec_02_0836;iat_vr;60.02076718286812;
5;LAMPE;Gemacht;q;1;8;18;9;q;1;1.2503140000044368;001;FSJM98;2019_Dec_02_0836;iat_vr;60.02076718286812;
5;STADT;Gemacht;q;1;9;19;6;q;1;0.5026762000052258;001;FSJM98;2019_Dec_02_0836;iat_vr;60.02076718286812;
;;;;;;;;;;;001;FSJM98;2019_Dec_02_0836;iat_vr;60.02076718286812;
6;SCHLECHT;negativ;q;0;0;0;11;q;1;1.196399200009182;001;FSJM98;2019_Dec_02_0836;iat_vr;60.02076718286812;
6;AUSGEZEICHNET;positiv;p;0;1;1;15;p;1;0.8461888000019826;001;FSJM98;2019_Dec_02_0836;iat_vr;60.02076718286812;
6;HERVORRAGEND;positiv;p;0;2;2;17;p;1;0.8835908999899402;001;FSJM98;2019_Dec_02_0836;iat_vr;60.02076718286812;
6;SCHLIMM;negativ;q;0;3;3;10;q;1;0.9341158000170253;001;FSJM98;2019_Dec_02_0836;iat_vr;60.02076718286812;
6;STADT;Gemacht;q;0;4;4;6;q;1;3.0125345999840647;001;FSJM98;2019_Dec_02_0836;iat_vr;60.02076718286812;
6;BLUME;Natur;p;0;5;5;2;p;1;0.8960420000366867;001;FSJM98;2019_Dec_02_0836;iat_vr;60.02076718286812;
6;GUT;positiv;p;0;6;6;19;p;1;0.6356637999997474;001;FSJM98;2019_Dec_02_0836;iat_vr;60.02076718286812;
6;SCHWACH;negativ;q;0;7;7;14;q;1;0.9313017000094987;001;FSJM98;2019_Dec_02_0836;iat_vr;60.02076718286812;
6;POSITIV;positiv;p;0;8;8;18;p;1;1.194863600016106;001;FSJM98;2019_Dec_02_0836;iat_vr;60.02076718286812;
6;COMPUTER;Gemacht;q;0;9;9;8;q;1;0.9943392999703065;001;FSJM98;2019_Dec_02_0836;iat_vr;60.02076718286812;
6;WASSER;Natur;p;0;10;10;1;p;1;0.6982866000034846;001;FSJM98;2019_Dec_02_0836;iat_vr;60.02076718286812;
6;LAMPE;Gemacht;q;0;11;11;9;q;1;0.683216400037054;001;FSJM98;2019_Dec_02_0836;iat_vr;60.02076718286812;
6;KLEIDER;Gemacht;q;0;12;12;7;q;1;0.7169292999897152;001;FSJM98;2019_Dec_02_0836;iat_vr;60.02076718286812;
6;STEIN;Natur;p;0;13;13;4;p;1;0.5670325999963097;001;FSJM98;2019_Dec_02_0836;iat_vr;60.02076718286812;
6;NEGATIV;negativ;q;0;14;14;12;q;1;1.0684803000185639;001;FSJM98;2019_Dec_02_0836;iat_vr;60.02076718286812;
6;BAUM;Natur;p;0;15;15;0;p;1;0.9340730999829248;001;FSJM98;2019_Dec_02_0836;iat_vr;60.02076718286812;
6;GEBÄUDE;Gemacht;q;0;16;16;5;q;1;0.7789164999849163;001;FSJM98;2019_Dec_02_0836;iat_vr;60.02076718286812;
6;EINWANDFREI;positiv;p;0;17;17;16;p;1;0.7452687000040896;001;FSJM98;2019_Dec_02_0836;iat_vr;60.02076718286812;
6;SCHÄDLICH;negativ;q;0;18;18;13;q;1;0.8115045999875292;001;FSJM98;2019_Dec_02_0836;iat_vr;60.02076718286812;
6;TIER;Natur;p;0;19;19;3;p;1;0.7471327999955975;001;FSJM98;2019_Dec_02_0836;iat_vr;60.02076718286812;
;;;;;;;;;;;001;FSJM98;2019_Dec_02_0836;iat_vr;60.02076718286812;
7;HERVORRAGEND;positiv;p;0;0;0;17;p;1;1.1501362000126392;001;FSJM98;2019_Dec_02_0836;iat_vr;60.02076718286812;
7;WASSER;Natur;p;0;1;1;1;p;1;0.6131778000271879;001;FSJM98;2019_Dec_02_0836;iat_vr;60.02076718286812;
7;LAMPE;Gemacht;q;0;2;2;9;q;1;0.6003658000263385;001;FSJM98;2019_Dec_02_0836;iat_vr;60.02076718286812;
7;SCHÄDLICH;negativ;q;0;3;3;13;q;1;0.5282997000031173;001;FSJM98;2019_Dec_02_0836;iat_vr;60.02076718286812;
7;SCHWACH;negativ;q;0;4;4;14;q;1;1.3211536000017077;001;FSJM98;2019_Dec_02_0836;iat_vr;60.02076718286812;
7;STADT;Gemacht;q;0;5;5;6;q;1;1.1445736000314355;001;FSJM98;2019_Dec_02_0836;iat_vr;60.02076718286812;
7;EINWANDFREI;positiv;p;0;6;6;16;p;1;0.6670018999720924;001;FSJM98;2019_Dec_02_0836;iat_vr;60.02076718286812;
7;KLEIDER;Gemacht;q;0;7;7;7;q;1;0.6005095000145957;001;FSJM98;2019_Dec_02_0836;iat_vr;60.02076718286812;
7;SCHLIMM;negativ;q;0;8;8;10;q;1;0.8504945000167936;001;FSJM98;2019_Dec_02_0836;iat_vr;60.02076718286812;
7;BAUM;Natur;p;0;9;9;0;p;1;0.5806896999711171;001;FSJM98;2019_Dec_02_0836;iat_vr;60.02076718286812;
7;COMPUTER;Gemacht;q;0;10;10;8;q;1;0.629061899962835;001;FSJM98;2019_Dec_02_0836;iat_vr;60.02076718286812;
7;POSITIV;positiv;p;0;11;11;18;p;1;0.8995015999535099;001;FSJM98;2019_Dec_02_0836;iat_vr;60.02076718286812;
7;SCHLECHT;negativ;q;0;12;12;11;q;1;1.3137748000444844;001;FSJM98;2019_Dec_02_0836;iat_vr;60.02076718286812;
7;STEIN;Natur;p;0;13;13;4;p;1;0.9453240999719128;001;FSJM98;2019_Dec_02_0836;iat_vr;60.02076718286812;
7;BLUME;Natur;p;0;14;14;2;p;1;2.278328499989584;001;FSJM98;2019_Dec_02_0836;iat_vr;60.02076718286812;
7;GEBÄUDE;Gemacht;q;0;15;15;5;q;1;0.8278236999758519;001;FSJM98;2019_Dec_02_0836;iat_vr;60.02076718286812;
7;GUT;positiv;p;0;16;16;19;p;1;0.6641907999874093;001;FSJM98;2019_Dec_02_0836;iat_vr;60.02076718286812;
7;NEGATIV;negativ;q;0;17;17;12;q;1;0.6013211000245064;001;FSJM98;2019_Dec_02_0836;iat_vr;60.02076718286812;
7;TIER;Natur;p;0;18;18;3;p;1;0.6323621000046842;001;FSJM98;2019_Dec_02_0836;iat_vr;60.02076718286812;
7;AUSGEZEICHNET;positiv;p;0;19;19;15;p;1;0.9763879000092857;001;FSJM98;2019_Dec_02_0836;iat_vr;60.02076718286812;
7;STADT;Gemacht;q;1;0;20;6;q;1;0.6299206999829039;001;FSJM98;2019_Dec_02_0836;iat_vr;60.02076718286812;
7;SCHLECHT;negativ;q;1;1;21;11;q;1;0.6213157000020146;001;FSJM98;2019_Dec_02_0836;iat_vr;60.02076718286812;
7;AUSGEZEICHNET;positiv;p;1;2;22;15;p;1;1.1019040000392124;001;FSJM98;2019_Dec_02_0836;iat_vr;60.02076718286812;
7;GUT;positiv;p;1;3;23;19;p;1;0.6998864999623038;001;FSJM98;2019_Dec_02_0836;iat_vr;60.02076718286812;
7;SCHWACH;negativ;q;1;4;24;14;q;1;1.1669671999989077;001;FSJM98;2019_Dec_02_0836;iat_vr;60.02076718286812;
7;SCHLIMM;negativ;q;1;5;25;10;q;1;0.5326063000247814;001;FSJM98;2019_Dec_02_0836;iat_vr;60.02076718286812;
7;BLUME;Natur;p;1;6;26;2;p;1;0.6678568000206724;001;FSJM98;2019_Dec_02_0836;iat_vr;60.02076718286812;
7;SCHÄDLICH;negativ;q;1;7;27;13;q;1;0.5931846000021324;001;FSJM98;2019_Dec_02_0836;iat_vr;60.02076718286812;
7;WASSER;Natur;p;1;8;28;1;q;0;0.516816099989228;001;FSJM98;2019_Dec_02_0836;iat_vr;60.02076718286812;
7;POSITIV;positiv;p;1;9;29;18;p;1;1.0828158000367694;001;FSJM98;2019_Dec_02_0836;iat_vr;60.02076718286812;
7;COMPUTER;Gemacht;q;1;10;30;8;q;1;0.8999536000192165;001;FSJM98;2019_Dec_02_0836;iat_vr;60.02076718286812;
7;GEBÄUDE;Gemacht;q;1;11;31;5;q;1;1.0173213999951258;001;FSJM98;2019_Dec_02_0836;iat_vr;60.02076718286812;
7;BAUM;Natur;p;1;12;32;0;p;1;0.8484389999648556;001;FSJM98;2019_Dec_02_0836;iat_vr;60.02076718286812;
7;HERVORRAGEND;positiv;p;1;13;33;17;p;1;1.4442337999935262;001;FSJM98;2019_Dec_02_0836;iat_vr;60.02076718286812;
7;NEGATIV;negativ;q;1;14;34;12;q;1;0.6975170000223443;001;FSJM98;2019_Dec_02_0836;iat_vr;60.02076718286812;
7;EINWANDFREI;positiv;p;1;15;35;16;p;1;0.7437009999994189;001;FSJM98;2019_Dec_02_0836;iat_vr;60.02076718286812;
7;KLEIDER;Gemacht;q;1;16;36;7;q;1;0.794038099993486;001;FSJM98;2019_Dec_02_0836;iat_vr;60.02076718286812;
7;STEIN;Natur;p;1;17;37;4;p;1;0.6022759999614209;001;FSJM98;2019_Dec_02_0836;iat_vr;60.02076718286812;
7;TIER;Natur;p;1;18;38;3;p;1;0.8023194000124931;001;FSJM98;2019_Dec_02_0836;iat_vr;60.02076718286812;
7;LAMPE;Gemacht;q;1;19;39;9;q;1;0.6680995000060648;001;FSJM98;2019_Dec_02_0836;iat_vr;60.02076718286812;
;;;;;;;;;;;001;FSJM98;2019_Dec_02_0836;iat_vr;60.02076718286812;
