Block;Word;Category;CorrResp;trials.thisRepN;trials.thisTrialN;trials.thisN;trials.thisIndex;key_resp_2.keys;key_resp_2.corr;key_resp_2.rt;session;participant;date;expName;frameRate;
1;COMPUTER;Gemacht;p;0;0;0;8;p;1;1.2908037999986846;001;FSJS67;2019_Dec_04_1619;iat_vr;60.08687360144646;
1;BLUME;Natur;q;0;1;1;2;q;1;0.8556922999996459;001;FSJS67;2019_Dec_04_1619;iat_vr;60.08687360144646;
1;GEBÄUDE;Gemacht;p;0;2;2;5;p;1;1.0197121000019251;001;FSJS67;2019_Dec_04_1619;iat_vr;60.08687360144646;
1;STEIN;Natur;q;0;3;3;4;p;0;0.6906054999999469;001;FSJS67;2019_Dec_04_1619;iat_vr;60.08687360144646;
1;KLEIDER;Gemacht;p;0;4;4;7;p;1;1.0957113000004028;001;FSJS67;2019_Dec_04_1619;iat_vr;60.08687360144646;
1;WASSER;Natur;q;0;5;5;1;q;1;0.9627748999992036;001;FSJS67;2019_Dec_04_1619;iat_vr;60.08687360144646;
1;BAUM;Natur;q;0;6;6;0;q;1;0.6471450999997614;001;FSJS67;2019_Dec_04_1619;iat_vr;60.08687360144646;
1;LAMPE;Gemacht;p;0;7;7;9;p;1;1.3983324999971956;001;FSJS67;2019_Dec_04_1619;iat_vr;60.08687360144646;
1;STADT;Gemacht;p;0;8;8;6;p;1;0.7151023000005807;001;FSJS67;2019_Dec_04_1619;iat_vr;60.08687360144646;
1;TIER;Natur;q;0;9;9;3;q;1;0.8156097999999474;001;FSJS67;2019_Dec_04_1619;iat_vr;60.08687360144646;
1;STADT;Gemacht;p;1;0;10;6;p;1;1.0130625999991025;001;FSJS67;2019_Dec_04_1619;iat_vr;60.08687360144646;
1;WASSER;Natur;q;1;1;11;1;q;1;0.7337224000002607;001;FSJS67;2019_Dec_04_1619;iat_vr;60.08687360144646;
1;COMPUTER;Gemacht;p;1;2;12;8;p;1;1.0503077999965171;001;FSJS67;2019_Dec_04_1619;iat_vr;60.08687360144646;
1;KLEIDER;Gemacht;p;1;3;13;7;p;1;1.185674199998175;001;FSJS67;2019_Dec_04_1619;iat_vr;60.08687360144646;
1;BAUM;Natur;q;1;4;14;0;q;1;0.7816947999999684;001;FSJS67;2019_Dec_04_1619;iat_vr;60.08687360144646;
1;TIER;Natur;q;1;5;15;3;q;1;0.8659308000023884;001;FSJS67;2019_Dec_04_1619;iat_vr;60.08687360144646;
1;STEIN;Natur;q;1;6;16;4;q;1;1.430569000000105;001;FSJS67;2019_Dec_04_1619;iat_vr;60.08687360144646;
1;LAMPE;Gemacht;p;1;7;17;9;p;1;0.7820356999982323;001;FSJS67;2019_Dec_04_1619;iat_vr;60.08687360144646;
1;BLUME;Natur;q;1;8;18;2;q;1;0.7301494000021194;001;FSJS67;2019_Dec_04_1619;iat_vr;60.08687360144646;
1;GEBÄUDE;Gemacht;p;1;9;19;5;p;1;1.3806114999970305;001;FSJS67;2019_Dec_04_1619;iat_vr;60.08687360144646;
;;;;;;;;;;;001;FSJS67;2019_Dec_04_1619;iat_vr;60.08687360144646;
2;NEGATIV;negativ;q;0;0;0;2;q;1;5.196013900000253;001;FSJS67;2019_Dec_04_1619;iat_vr;60.08687360144646;
2;GUT;positiv;p;0;1;1;9;p;1;1.3162865999984206;001;FSJS67;2019_Dec_04_1619;iat_vr;60.08687360144646;
2;HERVORRAGEND;positiv;p;0;2;2;7;p;1;1.5780461999966064;001;FSJS67;2019_Dec_04_1619;iat_vr;60.08687360144646;
2;EINWANDFREI;positiv;p;0;3;3;6;p;1;1.2460167999997793;001;FSJS67;2019_Dec_04_1619;iat_vr;60.08687360144646;
2;AUSGEZEICHNET;positiv;p;0;4;4;5;p;1;1.0058370000006107;001;FSJS67;2019_Dec_04_1619;iat_vr;60.08687360144646;
2;SCHLIMM;negativ;q;0;5;5;0;q;1;0.7622172000010323;001;FSJS67;2019_Dec_04_1619;iat_vr;60.08687360144646;
2;SCHÄDLICH;negativ;q;0;6;6;3;q;1;0.7443286000016087;001;FSJS67;2019_Dec_04_1619;iat_vr;60.08687360144646;
2;SCHLECHT;negativ;q;0;7;7;1;q;1;1.33114679999926;001;FSJS67;2019_Dec_04_1619;iat_vr;60.08687360144646;
2;POSITIV;positiv;p;0;8;8;8;p;1;0.8651223999986541;001;FSJS67;2019_Dec_04_1619;iat_vr;60.08687360144646;
2;SCHWACH;negativ;q;0;9;9;4;q;1;1.2155056999981753;001;FSJS67;2019_Dec_04_1619;iat_vr;60.08687360144646;
2;EINWANDFREI;positiv;p;1;0;10;6;p;1;0.8855054999985441;001;FSJS67;2019_Dec_04_1619;iat_vr;60.08687360144646;
2;POSITIV;positiv;p;1;1;11;8;p;1;1.03670449999845;001;FSJS67;2019_Dec_04_1619;iat_vr;60.08687360144646;
2;NEGATIV;negativ;q;1;2;12;2;q;1;0.7137664999972912;001;FSJS67;2019_Dec_04_1619;iat_vr;60.08687360144646;
2;SCHWACH;negativ;q;1;3;13;4;q;1;1.763707300000533;001;FSJS67;2019_Dec_04_1619;iat_vr;60.08687360144646;
2;AUSGEZEICHNET;positiv;p;1;4;14;5;p;1;0.7463456999976188;001;FSJS67;2019_Dec_04_1619;iat_vr;60.08687360144646;
2;GUT;positiv;p;1;5;15;9;p;1;1.449333900000056;001;FSJS67;2019_Dec_04_1619;iat_vr;60.08687360144646;
2;SCHLECHT;negativ;q;1;6;16;1;q;1;2.129281899997295;001;FSJS67;2019_Dec_04_1619;iat_vr;60.08687360144646;
2;HERVORRAGEND;positiv;p;1;7;17;7;p;1;0.8005148000011104;001;FSJS67;2019_Dec_04_1619;iat_vr;60.08687360144646;
2;SCHÄDLICH;negativ;q;1;8;18;3;q;1;1.4962004000008164;001;FSJS67;2019_Dec_04_1619;iat_vr;60.08687360144646;
2;SCHLIMM;negativ;q;1;9;19;0;q;1;0.6441034999988915;001;FSJS67;2019_Dec_04_1619;iat_vr;60.08687360144646;
;;;;;;;;;;;001;FSJS67;2019_Dec_04_1619;iat_vr;60.08687360144646;
3;NEGATIV;negativ;q;0;0;0;2;q;1;1.766504300001543;001;FSJS67;2019_Dec_04_1619;iat_vr;60.08687360144646;
3;TIER;Natur;q;0;1;1;13;q;1;1.2522953000006964;001;FSJS67;2019_Dec_04_1619;iat_vr;60.08687360144646;
3;AUSGEZEICHNET;positiv;p;0;2;2;5;p;1;2.744968400002108;001;FSJS67;2019_Dec_04_1619;iat_vr;60.08687360144646;
3;COMPUTER;Gemacht;p;0;3;3;18;p;1;3.3296083999994153;001;FSJS67;2019_Dec_04_1619;iat_vr;60.08687360144646;
3;GEBÄUDE;Gemacht;p;0;4;4;15;p;1;0.7639420999985305;001;FSJS67;2019_Dec_04_1619;iat_vr;60.08687360144646;
3;WASSER;Natur;q;0;5;5;11;q;1;0.8510194000009506;001;FSJS67;2019_Dec_04_1619;iat_vr;60.08687360144646;
3;POSITIV;positiv;p;0;6;6;8;p;1;1.6138050999979896;001;FSJS67;2019_Dec_04_1619;iat_vr;60.08687360144646;
3;SCHLECHT;negativ;q;0;7;7;1;q;1;0.894540400000551;001;FSJS67;2019_Dec_04_1619;iat_vr;60.08687360144646;
3;KLEIDER;Gemacht;p;0;8;8;17;p;1;1.7139568999991752;001;FSJS67;2019_Dec_04_1619;iat_vr;60.08687360144646;
3;EINWANDFREI;positiv;p;0;9;9;6;p;1;1.3610723000019789;001;FSJS67;2019_Dec_04_1619;iat_vr;60.08687360144646;
3;STADT;Gemacht;p;0;10;10;16;p;1;0.9141659000015352;001;FSJS67;2019_Dec_04_1619;iat_vr;60.08687360144646;
3;BAUM;Natur;q;0;11;11;10;q;1;0.9987067000001844;001;FSJS67;2019_Dec_04_1619;iat_vr;60.08687360144646;
3;HERVORRAGEND;positiv;p;0;12;12;7;p;1;2.6277483999983815;001;FSJS67;2019_Dec_04_1619;iat_vr;60.08687360144646;
3;SCHÄDLICH;negativ;q;0;13;13;3;q;1;0.9140991999993275;001;FSJS67;2019_Dec_04_1619;iat_vr;60.08687360144646;
3;SCHLIMM;negativ;q;0;14;14;0;q;1;1.1273900000014692;001;FSJS67;2019_Dec_04_1619;iat_vr;60.08687360144646;
3;LAMPE;Gemacht;p;0;15;15;19;p;1;0.9159633999988728;001;FSJS67;2019_Dec_04_1619;iat_vr;60.08687360144646;
3;GUT;positiv;p;0;16;16;9;p;1;1.448423299996648;001;FSJS67;2019_Dec_04_1619;iat_vr;60.08687360144646;
3;STEIN;Natur;q;0;17;17;14;q;1;0.995420399998693;001;FSJS67;2019_Dec_04_1619;iat_vr;60.08687360144646;
3;BLUME;Natur;q;0;18;18;12;q;1;1.5475483000009262;001;FSJS67;2019_Dec_04_1619;iat_vr;60.08687360144646;
3;SCHWACH;negativ;q;0;19;19;4;q;1;2.1313783999976295;001;FSJS67;2019_Dec_04_1619;iat_vr;60.08687360144646;
;;;;;;;;;;;001;FSJS67;2019_Dec_04_1619;iat_vr;60.08687360144646;
4;NEGATIV;negativ;q;0;0;0;2;q;1;0.950778899998113;001;FSJS67;2019_Dec_04_1619;iat_vr;60.08687360144646;
4;STADT;Gemacht;p;0;1;1;16;p;1;0.981978199997684;001;FSJS67;2019_Dec_04_1619;iat_vr;60.08687360144646;
4;SCHÄDLICH;negativ;q;0;2;2;3;q;1;1.7643610999984958;001;FSJS67;2019_Dec_04_1619;iat_vr;60.08687360144646;
4;AUSGEZEICHNET;positiv;p;0;3;3;5;p;1;0.9458194999970146;001;FSJS67;2019_Dec_04_1619;iat_vr;60.08687360144646;
4;SCHWACH;negativ;q;0;4;4;4;q;1;1.2134323999998742;001;FSJS67;2019_Dec_04_1619;iat_vr;60.08687360144646;
4;SCHLIMM;negativ;q;0;5;5;0;q;1;1.7811847000011767;001;FSJS67;2019_Dec_04_1619;iat_vr;60.08687360144646;
4;GUT;positiv;p;0;6;6;9;p;1;0.6825071000021126;001;FSJS67;2019_Dec_04_1619;iat_vr;60.08687360144646;
4;GEBÄUDE;Gemacht;p;0;7;7;15;p;1;0.7307863000023644;001;FSJS67;2019_Dec_04_1619;iat_vr;60.08687360144646;
4;TIER;Natur;q;0;8;8;13;q;1;0.9159323999992921;001;FSJS67;2019_Dec_04_1619;iat_vr;60.08687360144646;
4;BAUM;Natur;q;0;9;9;10;q;1;1.2154101000014634;001;FSJS67;2019_Dec_04_1619;iat_vr;60.08687360144646;
4;BLUME;Natur;q;0;10;10;12;q;1;0.6475845999993908;001;FSJS67;2019_Dec_04_1619;iat_vr;60.08687360144646;
4;EINWANDFREI;positiv;p;0;11;11;6;p;1;0.9944083000009414;001;FSJS67;2019_Dec_04_1619;iat_vr;60.08687360144646;
4;SCHLECHT;negativ;q;0;12;12;1;q;1;0.7465774000011152;001;FSJS67;2019_Dec_04_1619;iat_vr;60.08687360144646;
4;LAMPE;Gemacht;p;0;13;13;19;p;1;1.2815308999997796;001;FSJS67;2019_Dec_04_1619;iat_vr;60.08687360144646;
4;HERVORRAGEND;positiv;p;0;14;14;7;p;1;1.1464983000005304;001;FSJS67;2019_Dec_04_1619;iat_vr;60.08687360144646;
4;KLEIDER;Gemacht;p;0;15;15;17;p;1;0.8285432000011497;001;FSJS67;2019_Dec_04_1619;iat_vr;60.08687360144646;
4;POSITIV;positiv;p;0;16;16;8;q;0;0.864641300002404;001;FSJS67;2019_Dec_04_1619;iat_vr;60.08687360144646;
4;STEIN;Natur;q;0;17;17;14;q;1;0.7975874000003387;001;FSJS67;2019_Dec_04_1619;iat_vr;60.08687360144646;
4;COMPUTER;Gemacht;p;0;18;18;18;p;1;0.8973488999981782;001;FSJS67;2019_Dec_04_1619;iat_vr;60.08687360144646;
4;WASSER;Natur;q;0;19;19;11;q;1;2.5627825999981724;001;FSJS67;2019_Dec_04_1619;iat_vr;60.08687360144646;
4;EINWANDFREI;positiv;p;1;0;20;6;p;1;0.9119300999991538;001;FSJS67;2019_Dec_04_1619;iat_vr;60.08687360144646;
4;SCHÄDLICH;negativ;q;1;1;21;3;q;1;2.2115451999998186;001;FSJS67;2019_Dec_04_1619;iat_vr;60.08687360144646;
4;NEGATIV;negativ;q;1;2;22;2;q;1;0.6621439999980794;001;FSJS67;2019_Dec_04_1619;iat_vr;60.08687360144646;
4;WASSER;Natur;q;1;3;23;11;q;1;0.7619470999998157;001;FSJS67;2019_Dec_04_1619;iat_vr;60.08687360144646;
4;LAMPE;Gemacht;p;1;4;24;19;p;1;0.8134038000025612;001;FSJS67;2019_Dec_04_1619;iat_vr;60.08687360144646;
4;SCHLECHT;negativ;q;1;5;25;1;q;1;0.8816723000018101;001;FSJS67;2019_Dec_04_1619;iat_vr;60.08687360144646;
4;AUSGEZEICHNET;positiv;p;1;6;26;5;p;1;0.8781718999998702;001;FSJS67;2019_Dec_04_1619;iat_vr;60.08687360144646;
4;STEIN;Natur;q;1;7;27;14;q;1;0.8490569999994477;001;FSJS67;2019_Dec_04_1619;iat_vr;60.08687360144646;
4;STADT;Gemacht;p;1;8;28;16;p;1;1.581384799999796;001;FSJS67;2019_Dec_04_1619;iat_vr;60.08687360144646;
4;HERVORRAGEND;positiv;p;1;9;29;7;p;1;1.5450482000014745;001;FSJS67;2019_Dec_04_1619;iat_vr;60.08687360144646;
4;BLUME;Natur;q;1;10;30;12;q;1;0.7017942999991647;001;FSJS67;2019_Dec_04_1619;iat_vr;60.08687360144646;
4;GUT;positiv;p;1;11;31;9;p;1;1.4481750000013562;001;FSJS67;2019_Dec_04_1619;iat_vr;60.08687360144646;
4;POSITIV;positiv;p;1;12;32;8;p;1;1.2650600999986636;001;FSJS67;2019_Dec_04_1619;iat_vr;60.08687360144646;
4;COMPUTER;Gemacht;p;1;13;33;18;p;1;1.030830400002742;001;FSJS67;2019_Dec_04_1619;iat_vr;60.08687360144646;
4;KLEIDER;Gemacht;p;1;14;34;17;p;1;0.7288886999995157;001;FSJS67;2019_Dec_04_1619;iat_vr;60.08687360144646;
4;TIER;Natur;q;1;15;35;13;q;1;0.7447126000006392;001;FSJS67;2019_Dec_04_1619;iat_vr;60.08687360144646;
4;GEBÄUDE;Gemacht;p;1;16;36;15;p;1;0.697507199998654;001;FSJS67;2019_Dec_04_1619;iat_vr;60.08687360144646;
4;SCHLIMM;negativ;q;1;17;37;0;q;1;1.527408199999627;001;FSJS67;2019_Dec_04_1619;iat_vr;60.08687360144646;
4;BAUM;Natur;q;1;18;38;10;q;1;1.0147378000001481;001;FSJS67;2019_Dec_04_1619;iat_vr;60.08687360144646;
4;SCHWACH;negativ;q;1;19;39;4;q;1;1.297059900000022;001;FSJS67;2019_Dec_04_1619;iat_vr;60.08687360144646;
;;;;;;;;;;;001;FSJS67;2019_Dec_04_1619;iat_vr;60.08687360144646;
5;KLEIDER;Gemacht;q;0;0;0;7;q;1;1.5070383000020229;001;FSJS67;2019_Dec_04_1619;iat_vr;60.08687360144646;
5;BLUME;Natur;p;0;1;1;2;p;1;1.44607520000136;001;FSJS67;2019_Dec_04_1619;iat_vr;60.08687360144646;
5;TIER;Natur;p;0;2;2;3;p;1;1.580901499997708;001;FSJS67;2019_Dec_04_1619;iat_vr;60.08687360144646;
5;BAUM;Natur;p;0;3;3;0;p;1;0.5652353999976185;001;FSJS67;2019_Dec_04_1619;iat_vr;60.08687360144646;
5;STADT;Gemacht;q;0;4;4;6;q;1;0.6297001000020828;001;FSJS67;2019_Dec_04_1619;iat_vr;60.08687360144646;
5;COMPUTER;Gemacht;q;0;5;5;8;q;1;1.0478659000000334;001;FSJS67;2019_Dec_04_1619;iat_vr;60.08687360144646;
5;WASSER;Natur;p;0;6;6;1;p;1;0.7625680000019202;001;FSJS67;2019_Dec_04_1619;iat_vr;60.08687360144646;
5;GEBÄUDE;Gemacht;q;0;7;7;5;q;1;0.8298111000003701;001;FSJS67;2019_Dec_04_1619;iat_vr;60.08687360144646;
5;LAMPE;Gemacht;q;0;8;8;9;q;1;0.8187273000003188;001;FSJS67;2019_Dec_04_1619;iat_vr;60.08687360144646;
5;STEIN;Natur;p;0;9;9;4;p;1;1.2634466999988945;001;FSJS67;2019_Dec_04_1619;iat_vr;60.08687360144646;
5;KLEIDER;Gemacht;q;1;0;10;7;q;1;0.6637101000014809;001;FSJS67;2019_Dec_04_1619;iat_vr;60.08687360144646;
5;STEIN;Natur;p;1;1;11;4;p;1;0.6019591999975091;001;FSJS67;2019_Dec_04_1619;iat_vr;60.08687360144646;
5;BAUM;Natur;p;1;2;12;0;p;1;1.0990406999990228;001;FSJS67;2019_Dec_04_1619;iat_vr;60.08687360144646;
5;COMPUTER;Gemacht;q;1;3;13;8;q;1;0.9641236999996181;001;FSJS67;2019_Dec_04_1619;iat_vr;60.08687360144646;
5;LAMPE;Gemacht;q;1;4;14;9;q;1;0.9288938999998209;001;FSJS67;2019_Dec_04_1619;iat_vr;60.08687360144646;
5;STADT;Gemacht;q;1;5;15;6;q;1;0.7145194999975502;001;FSJS67;2019_Dec_04_1619;iat_vr;60.08687360144646;
5;WASSER;Natur;p;1;6;16;1;p;1;0.748808199998166;001;FSJS67;2019_Dec_04_1619;iat_vr;60.08687360144646;
5;GEBÄUDE;Gemacht;q;1;7;17;5;q;1;1.0954157000014675;001;FSJS67;2019_Dec_04_1619;iat_vr;60.08687360144646;
5;BLUME;Natur;p;1;8;18;2;p;1;0.7821287999977358;001;FSJS67;2019_Dec_04_1619;iat_vr;60.08687360144646;
5;TIER;Natur;p;1;9;19;3;p;1;0.7824044000008143;001;FSJS67;2019_Dec_04_1619;iat_vr;60.08687360144646;
;;;;;;;;;;;001;FSJS67;2019_Dec_04_1619;iat_vr;60.08687360144646;
6;GUT;positiv;p;0;0;0;19;p;1;1.159718699997029;001;FSJS67;2019_Dec_04_1619;iat_vr;60.08687360144646;
6;COMPUTER;Gemacht;q;0;1;1;8;q;1;1.4981303000022308;001;FSJS67;2019_Dec_04_1619;iat_vr;60.08687360144646;
6;STEIN;Natur;p;0;2;2;4;p;1;2.41396689999965;001;FSJS67;2019_Dec_04_1619;iat_vr;60.08687360144646;
6;SCHLECHT;negativ;q;0;3;3;11;q;1;1.4116458999997121;001;FSJS67;2019_Dec_04_1619;iat_vr;60.08687360144646;
6;SCHWACH;negativ;q;0;4;4;14;q;1;1.2653461000008974;001;FSJS67;2019_Dec_04_1619;iat_vr;60.08687360144646;
6;BLUME;Natur;p;0;5;5;2;p;1;0.9628736000013305;001;FSJS67;2019_Dec_04_1619;iat_vr;60.08687360144646;
6;SCHLIMM;negativ;q;0;6;6;10;q;1;1.8976426999979594;001;FSJS67;2019_Dec_04_1619;iat_vr;60.08687360144646;
6;STADT;Gemacht;q;0;7;7;6;q;1;0.848784900001192;001;FSJS67;2019_Dec_04_1619;iat_vr;60.08687360144646;
6;SCHÄDLICH;negativ;q;0;8;8;13;q;1;1.212934099999984;001;FSJS67;2019_Dec_04_1619;iat_vr;60.08687360144646;
6;WASSER;Natur;p;0;9;9;1;p;1;0.8976719999991474;001;FSJS67;2019_Dec_04_1619;iat_vr;60.08687360144646;
6;BAUM;Natur;p;0;10;10;0;p;1;1.2652596999978414;001;FSJS67;2019_Dec_04_1619;iat_vr;60.08687360144646;
6;NEGATIV;negativ;q;0;11;11;12;q;1;0.9470461000018986;001;FSJS67;2019_Dec_04_1619;iat_vr;60.08687360144646;
6;HERVORRAGEND;positiv;p;0;12;12;17;p;1;0.7937856999997166;001;FSJS67;2019_Dec_04_1619;iat_vr;60.08687360144646;
6;POSITIV;positiv;p;0;13;13;18;p;1;0.7315920000000915;001;FSJS67;2019_Dec_04_1619;iat_vr;60.08687360144646;
6;TIER;Natur;p;0;14;14;3;p;1;0.8146057999983896;001;FSJS67;2019_Dec_04_1619;iat_vr;60.08687360144646;
6;EINWANDFREI;positiv;p;0;15;15;16;p;1;1.6610725999998976;001;FSJS67;2019_Dec_04_1619;iat_vr;60.08687360144646;
6;GEBÄUDE;Gemacht;q;0;16;16;5;q;1;0.8521884000001592;001;FSJS67;2019_Dec_04_1619;iat_vr;60.08687360144646;
6;AUSGEZEICHNET;positiv;p;0;17;17;15;p;1;1.0607040000031702;001;FSJS67;2019_Dec_04_1619;iat_vr;60.08687360144646;
6;KLEIDER;Gemacht;q;0;18;18;7;q;1;1.4806819000004907;001;FSJS67;2019_Dec_04_1619;iat_vr;60.08687360144646;
6;LAMPE;Gemacht;q;0;19;19;9;q;1;0.6695115000002261;001;FSJS67;2019_Dec_04_1619;iat_vr;60.08687360144646;
;;;;;;;;;;;001;FSJS67;2019_Dec_04_1619;iat_vr;60.08687360144646;
7;STADT;Gemacht;q;0;0;0;6;q;1;1.1830917000006593;001;FSJS67;2019_Dec_04_1619;iat_vr;60.08687360144646;
7;POSITIV;positiv;p;0;1;1;18;p;1;0.8958807000017259;001;FSJS67;2019_Dec_04_1619;iat_vr;60.08687360144646;
7;COMPUTER;Gemacht;q;0;2;2;8;q;1;1.214526099996874;001;FSJS67;2019_Dec_04_1619;iat_vr;60.08687360144646;
7;NEGATIV;negativ;q;0;3;3;12;q;1;0.7983745999990788;001;FSJS67;2019_Dec_04_1619;iat_vr;60.08687360144646;
7;GUT;positiv;p;0;4;4;19;p;1;0.6658649000019068;001;FSJS67;2019_Dec_04_1619;iat_vr;60.08687360144646;
7;SCHWACH;negativ;q;0;5;5;14;q;1;1.2308169999996608;001;FSJS67;2019_Dec_04_1619;iat_vr;60.08687360144646;
7;GEBÄUDE;Gemacht;q;0;6;6;5;q;1;1.3954870000015944;001;FSJS67;2019_Dec_04_1619;iat_vr;60.08687360144646;
7;SCHLECHT;negativ;q;0;7;7;11;q;1;0.8461907999990217;001;FSJS67;2019_Dec_04_1619;iat_vr;60.08687360144646;
7;BLUME;Natur;p;0;8;8;2;p;1;0.6806979000029969;001;FSJS67;2019_Dec_04_1619;iat_vr;60.08687360144646;
7;BAUM;Natur;p;0;9;9;0;p;1;3.0834270999985165;001;FSJS67;2019_Dec_04_1619;iat_vr;60.08687360144646;
7;SCHLIMM;negativ;q;0;10;10;10;q;1;0.8650563000010152;001;FSJS67;2019_Dec_04_1619;iat_vr;60.08687360144646;
7;TIER;Natur;p;0;11;11;3;p;1;1.0986278999989736;001;FSJS67;2019_Dec_04_1619;iat_vr;60.08687360144646;
7;AUSGEZEICHNET;positiv;p;0;12;12;15;p;1;1.094013799996901;001;FSJS67;2019_Dec_04_1619;iat_vr;60.08687360144646;
7;WASSER;Natur;p;0;13;13;1;p;1;0.7632118000001356;001;FSJS67;2019_Dec_04_1619;iat_vr;60.08687360144646;
7;HERVORRAGEND;positiv;p;0;14;14;17;p;1;0.678527000000031;001;FSJS67;2019_Dec_04_1619;iat_vr;60.08687360144646;
7;STEIN;Natur;p;0;15;15;4;p;1;1.1133063000015682;001;FSJS67;2019_Dec_04_1619;iat_vr;60.08687360144646;
7;EINWANDFREI;positiv;p;0;16;16;16;p;1;0.6960893999967084;001;FSJS67;2019_Dec_04_1619;iat_vr;60.08687360144646;
7;KLEIDER;Gemacht;q;0;17;17;7;q;1;0.6947110000000976;001;FSJS67;2019_Dec_04_1619;iat_vr;60.08687360144646;
7;SCHÄDLICH;negativ;q;0;18;18;13;q;1;0.9353454999982205;001;FSJS67;2019_Dec_04_1619;iat_vr;60.08687360144646;
7;LAMPE;Gemacht;q;0;19;19;9;q;1;0.8143137999977625;001;FSJS67;2019_Dec_04_1619;iat_vr;60.08687360144646;
7;TIER;Natur;p;1;0;20;3;p;1;0.7351885999996739;001;FSJS67;2019_Dec_04_1619;iat_vr;60.08687360144646;
7;EINWANDFREI;positiv;p;1;1;21;16;p;1;0.8461956000028295;001;FSJS67;2019_Dec_04_1619;iat_vr;60.08687360144646;
7;STADT;Gemacht;q;1;2;22;6;q;1;0.8153730000012729;001;FSJS67;2019_Dec_04_1619;iat_vr;60.08687360144646;
7;SCHLECHT;negativ;q;1;3;23;11;q;1;1.1137936000013724;001;FSJS67;2019_Dec_04_1619;iat_vr;60.08687360144646;
7;COMPUTER;Gemacht;q;1;4;24;8;q;1;0.7940278000023682;001;FSJS67;2019_Dec_04_1619;iat_vr;60.08687360144646;
7;AUSGEZEICHNET;positiv;p;1;5;25;15;p;1;0.6283165999993798;001;FSJS67;2019_Dec_04_1619;iat_vr;60.08687360144646;
7;BLUME;Natur;p;1;6;26;2;p;1;0.6795607000021846;001;FSJS67;2019_Dec_04_1619;iat_vr;60.08687360144646;
7;HERVORRAGEND;positiv;p;1;7;27;17;p;1;1.9127389000022958;001;FSJS67;2019_Dec_04_1619;iat_vr;60.08687360144646;
7;SCHWACH;negativ;q;1;8;28;14;p;0;0.6810300000033749;001;FSJS67;2019_Dec_04_1619;iat_vr;60.08687360144646;
7;GUT;positiv;p;1;9;29;19;p;1;0.8017814999984694;001;FSJS67;2019_Dec_04_1619;iat_vr;60.08687360144646;
7;WASSER;Natur;p;1;10;30;1;p;1;0.7077895000002172;001;FSJS67;2019_Dec_04_1619;iat_vr;60.08687360144646;
7;POSITIV;positiv;p;1;11;31;18;p;1;1.2941616999996768;001;FSJS67;2019_Dec_04_1619;iat_vr;60.08687360144646;
7;KLEIDER;Gemacht;q;1;12;32;7;q;1;0.7469480999970983;001;FSJS67;2019_Dec_04_1619;iat_vr;60.08687360144646;
7;NEGATIV;negativ;q;1;13;33;12;q;1;0.744483800001035;001;FSJS67;2019_Dec_04_1619;iat_vr;60.08687360144646;
7;GEBÄUDE;Gemacht;q;1;14;34;5;q;1;0.7473752000005334;001;FSJS67;2019_Dec_04_1619;iat_vr;60.08687360144646;
7;STEIN;Natur;p;1;15;35;4;p;1;0.7299953999972786;001;FSJS67;2019_Dec_04_1619;iat_vr;60.08687360144646;
7;BAUM;Natur;p;1;16;36;0;p;1;0.7171181000012439;001;FSJS67;2019_Dec_04_1619;iat_vr;60.08687360144646;
7;LAMPE;Gemacht;q;1;17;37;9;q;1;0.9002222999988589;001;FSJS67;2019_Dec_04_1619;iat_vr;60.08687360144646;
7;SCHLIMM;negativ;q;1;18;38;10;q;1;1.6522203000022273;001;FSJS67;2019_Dec_04_1619;iat_vr;60.08687360144646;
7;SCHÄDLICH;negativ;q;1;19;39;13;q;1;0.6251817000011215;001;FSJS67;2019_Dec_04_1619;iat_vr;60.08687360144646;
;;;;;;;;;;;001;FSJS67;2019_Dec_04_1619;iat_vr;60.08687360144646;
