Block;Word;Category;CorrResp;trials.thisRepN;trials.thisTrialN;trials.thisN;trials.thisIndex;key_resp_2.keys;key_resp_2.corr;key_resp_2.rt;session;participant;date;expName;frameRate;
1;STADT;Gemacht;p;0;0;0;6;p;1;1.117403899996134;002;FSJS96;2019_Nov_27_1828;iat_vr;60.11613234344752;
1;TIER;Natur;q;0;1;1;3;q;1;0.6403054000038537;002;FSJS96;2019_Nov_27_1828;iat_vr;60.11613234344752;
1;COMPUTER;Gemacht;p;0;2;2;8;p;1;0.5337478000001283;002;FSJS96;2019_Nov_27_1828;iat_vr;60.11613234344752;
1;KLEIDER;Gemacht;p;0;3;3;7;p;1;0.7579133000035654;002;FSJS96;2019_Nov_27_1828;iat_vr;60.11613234344752;
1;LAMPE;Gemacht;p;0;4;4;9;p;1;0.4975542999964091;002;FSJS96;2019_Nov_27_1828;iat_vr;60.11613234344752;
1;BLUME;Natur;q;0;5;5;2;q;1;0.7690091000040411;002;FSJS96;2019_Nov_27_1828;iat_vr;60.11613234344752;
1;WASSER;Natur;q;0;6;6;1;q;1;0.5616177999982028;002;FSJS96;2019_Nov_27_1828;iat_vr;60.11613234344752;
1;STEIN;Natur;q;0;7;7;4;q;1;0.5269734000030439;002;FSJS96;2019_Nov_27_1828;iat_vr;60.11613234344752;
1;GEBÄUDE;Gemacht;p;0;8;8;5;p;1;0.5401677999980166;002;FSJS96;2019_Nov_27_1828;iat_vr;60.11613234344752;
1;BAUM;Natur;q;0;9;9;0;p;0;0.4754451000044355;002;FSJS96;2019_Nov_27_1828;iat_vr;60.11613234344752;
1;COMPUTER;Gemacht;p;1;0;10;8;p;1;0.9475228000010247;002;FSJS96;2019_Nov_27_1828;iat_vr;60.11613234344752;
1;LAMPE;Gemacht;p;1;1;11;9;p;1;0.5183185999994748;002;FSJS96;2019_Nov_27_1828;iat_vr;60.11613234344752;
1;TIER;Natur;q;1;2;12;3;q;1;0.7492492000019411;002;FSJS96;2019_Nov_27_1828;iat_vr;60.11613234344752;
1;BAUM;Natur;q;1;3;13;0;q;1;0.5650337000042782;002;FSJS96;2019_Nov_27_1828;iat_vr;60.11613234344752;
1;KLEIDER;Gemacht;p;1;4;14;7;p;1;0.664231100003235;002;FSJS96;2019_Nov_27_1828;iat_vr;60.11613234344752;
1;STADT;Gemacht;p;1;5;15;6;p;1;0.5320951000030618;002;FSJS96;2019_Nov_27_1828;iat_vr;60.11613234344752;
1;WASSER;Natur;q;1;6;16;1;q;1;0.664650900005654;002;FSJS96;2019_Nov_27_1828;iat_vr;60.11613234344752;
1;GEBÄUDE;Gemacht;p;1;7;17;5;p;1;0.6354324999992969;002;FSJS96;2019_Nov_27_1828;iat_vr;60.11613234344752;
1;STEIN;Natur;q;1;8;18;4;q;1;0.6642098000011174;002;FSJS96;2019_Nov_27_1828;iat_vr;60.11613234344752;
1;BLUME;Natur;q;1;9;19;2;q;1;0.6479570000010426;002;FSJS96;2019_Nov_27_1828;iat_vr;60.11613234344752;
;;;;;;;;;;;002;FSJS96;2019_Nov_27_1828;iat_vr;60.11613234344752;
2;SCHÄDLICH;negativ;q;0;0;0;3;q;1;1.676926000000094;002;FSJS96;2019_Nov_27_1828;iat_vr;60.11613234344752;
2;NEGATIV;negativ;q;0;1;1;2;q;1;0.7248771999948076;002;FSJS96;2019_Nov_27_1828;iat_vr;60.11613234344752;
2;SCHLIMM;negativ;q;0;2;2;0;q;1;0.5968718000003719;002;FSJS96;2019_Nov_27_1828;iat_vr;60.11613234344752;
2;SCHWACH;negativ;q;0;3;3;4;q;1;0.47843360000115354;002;FSJS96;2019_Nov_27_1828;iat_vr;60.11613234344752;
2;EINWANDFREI;positiv;p;0;4;4;6;p;1;0.967241099999228;002;FSJS96;2019_Nov_27_1828;iat_vr;60.11613234344752;
2;AUSGEZEICHNET;positiv;p;0;5;5;5;p;1;0.567201899997599;002;FSJS96;2019_Nov_27_1828;iat_vr;60.11613234344752;
2;HERVORRAGEND;positiv;p;0;6;6;7;p;1;0.533546300001035;002;FSJS96;2019_Nov_27_1828;iat_vr;60.11613234344752;
2;SCHLECHT;negativ;q;0;7;7;1;q;1;0.8004127000021981;002;FSJS96;2019_Nov_27_1828;iat_vr;60.11613234344752;
2;POSITIV;positiv;p;0;8;8;8;p;1;0.7336267999999109;002;FSJS96;2019_Nov_27_1828;iat_vr;60.11613234344752;
2;GUT;positiv;p;0;9;9;9;p;1;0.5671203000019887;002;FSJS96;2019_Nov_27_1828;iat_vr;60.11613234344752;
2;SCHÄDLICH;negativ;q;1;0;10;3;q;1;0.5502972999966005;002;FSJS96;2019_Nov_27_1828;iat_vr;60.11613234344752;
2;GUT;positiv;p;1;1;11;9;p;1;0.5674345999941579;002;FSJS96;2019_Nov_27_1828;iat_vr;60.11613234344752;
2;POSITIV;positiv;p;1;2;12;8;p;1;0.48573839999880875;002;FSJS96;2019_Nov_27_1828;iat_vr;60.11613234344752;
2;SCHWACH;negativ;q;1;3;13;4;q;1;0.5301577000063844;002;FSJS96;2019_Nov_27_1828;iat_vr;60.11613234344752;
2;EINWANDFREI;positiv;p;1;4;14;6;p;1;0.6262793999994756;002;FSJS96;2019_Nov_27_1828;iat_vr;60.11613234344752;
2;AUSGEZEICHNET;positiv;p;1;5;15;5;p;1;0.5269969000000856;002;FSJS96;2019_Nov_27_1828;iat_vr;60.11613234344752;
2;HERVORRAGEND;positiv;p;1;6;16;7;p;1;0.5575404000046547;002;FSJS96;2019_Nov_27_1828;iat_vr;60.11613234344752;
2;SCHLIMM;negativ;q;1;7;17;0;q;1;0.5978618000008282;002;FSJS96;2019_Nov_27_1828;iat_vr;60.11613234344752;
2;SCHLECHT;negativ;q;1;8;18;1;q;1;0.5141514999995707;002;FSJS96;2019_Nov_27_1828;iat_vr;60.11613234344752;
2;NEGATIV;negativ;q;1;9;19;2;q;1;0.6783618999979808;002;FSJS96;2019_Nov_27_1828;iat_vr;60.11613234344752;
;;;;;;;;;;;002;FSJS96;2019_Nov_27_1828;iat_vr;60.11613234344752;
3;AUSGEZEICHNET;positiv;p;0;0;0;5;p;1;1.535222900005465;002;FSJS96;2019_Nov_27_1828;iat_vr;60.11613234344752;
3;NEGATIV;negativ;q;0;1;1;2;q;1;1.0647910999978194;002;FSJS96;2019_Nov_27_1828;iat_vr;60.11613234344752;
3;GUT;positiv;p;0;2;2;9;p;1;0.6320332999966922;002;FSJS96;2019_Nov_27_1828;iat_vr;60.11613234344752;
3;SCHLIMM;negativ;q;0;3;3;0;q;1;0.7973738000000594;002;FSJS96;2019_Nov_27_1828;iat_vr;60.11613234344752;
3;SCHWACH;negativ;q;0;4;4;4;q;1;0.545692899999267;002;FSJS96;2019_Nov_27_1828;iat_vr;60.11613234344752;
3;KLEIDER;Gemacht;p;0;5;5;17;p;1;1.0606435000008787;002;FSJS96;2019_Nov_27_1828;iat_vr;60.11613234344752;
3;STADT;Gemacht;p;0;6;6;16;p;1;0.5650476000009803;002;FSJS96;2019_Nov_27_1828;iat_vr;60.11613234344752;
3;STEIN;Natur;q;0;7;7;14;q;1;0.6925644000002649;002;FSJS96;2019_Nov_27_1828;iat_vr;60.11613234344752;
3;SCHÄDLICH;negativ;q;0;8;8;3;q;1;1.4464240999950562;002;FSJS96;2019_Nov_27_1828;iat_vr;60.11613234344752;
3;GEBÄUDE;Gemacht;p;0;9;9;15;p;1;0.9142088000007789;002;FSJS96;2019_Nov_27_1828;iat_vr;60.11613234344752;
3;POSITIV;positiv;p;0;10;10;8;p;1;0.7150312000012491;002;FSJS96;2019_Nov_27_1828;iat_vr;60.11613234344752;
3;TIER;Natur;q;0;11;11;13;q;1;0.7647756999940611;002;FSJS96;2019_Nov_27_1828;iat_vr;60.11613234344752;
3;HERVORRAGEND;positiv;p;0;12;12;7;p;1;0.6635595000043395;002;FSJS96;2019_Nov_27_1828;iat_vr;60.11613234344752;
3;LAMPE;Gemacht;p;0;13;13;19;p;1;0.5652345999988029;002;FSJS96;2019_Nov_27_1828;iat_vr;60.11613234344752;
3;SCHLECHT;negativ;q;0;14;14;1;q;1;0.6449772999985726;002;FSJS96;2019_Nov_27_1828;iat_vr;60.11613234344752;
3;WASSER;Natur;q;0;15;15;11;q;1;0.7154377000042587;002;FSJS96;2019_Nov_27_1828;iat_vr;60.11613234344752;
3;EINWANDFREI;positiv;p;0;16;16;6;p;1;1.0799556999991182;002;FSJS96;2019_Nov_27_1828;iat_vr;60.11613234344752;
3;BAUM;Natur;q;0;17;17;10;q;1;0.6987802000003285;002;FSJS96;2019_Nov_27_1828;iat_vr;60.11613234344752;
3;COMPUTER;Gemacht;p;0;18;18;18;p;1;0.5962701000025845;002;FSJS96;2019_Nov_27_1828;iat_vr;60.11613234344752;
3;BLUME;Natur;q;0;19;19;12;q;1;0.5808087999976124;002;FSJS96;2019_Nov_27_1828;iat_vr;60.11613234344752;
;;;;;;;;;;;002;FSJS96;2019_Nov_27_1828;iat_vr;60.11613234344752;
4;COMPUTER;Gemacht;p;0;0;0;18;p;1;0.9687974999978906;002;FSJS96;2019_Nov_27_1828;iat_vr;60.11613234344752;
4;GEBÄUDE;Gemacht;p;0;1;1;15;p;1;0.5802283999946667;002;FSJS96;2019_Nov_27_1828;iat_vr;60.11613234344752;
4;EINWANDFREI;positiv;p;0;2;2;6;p;1;1.0175182999955723;002;FSJS96;2019_Nov_27_1828;iat_vr;60.11613234344752;
4;SCHWACH;negativ;q;0;3;3;4;q;1;0.747379300002649;002;FSJS96;2019_Nov_27_1828;iat_vr;60.11613234344752;
4;STADT;Gemacht;p;0;4;4;16;p;1;0.7313435999967624;002;FSJS96;2019_Nov_27_1828;iat_vr;60.11613234344752;
4;TIER;Natur;q;0;5;5;13;q;1;0.6653732999984641;002;FSJS96;2019_Nov_27_1828;iat_vr;60.11613234344752;
4;KLEIDER;Gemacht;p;0;6;6;17;p;1;0.8128322000047774;002;FSJS96;2019_Nov_27_1828;iat_vr;60.11613234344752;
4;WASSER;Natur;q;0;7;7;11;q;1;0.8997517000025255;002;FSJS96;2019_Nov_27_1828;iat_vr;60.11613234344752;
4;STEIN;Natur;q;0;8;8;14;q;1;0.7654969000068377;002;FSJS96;2019_Nov_27_1828;iat_vr;60.11613234344752;
4;SCHLIMM;negativ;q;0;9;9;0;q;1;0.9966949000008754;002;FSJS96;2019_Nov_27_1828;iat_vr;60.11613234344752;
4;SCHLECHT;negativ;q;0;10;10;1;q;1;0.5274619000047096;002;FSJS96;2019_Nov_27_1828;iat_vr;60.11613234344752;
4;AUSGEZEICHNET;positiv;p;0;11;11;5;p;1;0.623080100005609;002;FSJS96;2019_Nov_27_1828;iat_vr;60.11613234344752;
4;SCHÄDLICH;negativ;q;0;12;12;3;q;1;1.0790819000030751;002;FSJS96;2019_Nov_27_1828;iat_vr;60.11613234344752;
4;BLUME;Natur;q;0;13;13;12;q;1;2.82949329999974;002;FSJS96;2019_Nov_27_1828;iat_vr;60.11613234344752;
4;GUT;positiv;p;0;14;14;9;p;1;0.6805739000046742;002;FSJS96;2019_Nov_27_1828;iat_vr;60.11613234344752;
4;HERVORRAGEND;positiv;p;0;15;15;7;p;1;0.4954362000062247;002;FSJS96;2019_Nov_27_1828;iat_vr;60.11613234344752;
4;POSITIV;positiv;p;0;16;16;8;p;1;0.49721869999484625;002;FSJS96;2019_Nov_27_1828;iat_vr;60.11613234344752;
4;NEGATIV;negativ;q;0;17;17;2;q;1;0.7460828999974183;002;FSJS96;2019_Nov_27_1828;iat_vr;60.11613234344752;
4;BAUM;Natur;q;0;18;18;10;q;1;0.8485631000003195;002;FSJS96;2019_Nov_27_1828;iat_vr;60.11613234344752;
4;LAMPE;Gemacht;p;0;19;19;19;p;1;0.615384400000039;002;FSJS96;2019_Nov_27_1828;iat_vr;60.11613234344752;
4;TIER;Natur;q;1;0;20;13;q;1;0.5339765000026091;002;FSJS96;2019_Nov_27_1828;iat_vr;60.11613234344752;
4;SCHWACH;negativ;q;1;1;21;4;q;1;0.5970336000027601;002;FSJS96;2019_Nov_27_1828;iat_vr;60.11613234344752;
4;STADT;Gemacht;p;1;2;22;16;p;1;1.2463522999969427;002;FSJS96;2019_Nov_27_1828;iat_vr;60.11613234344752;
4;EINWANDFREI;positiv;p;1;3;23;6;p;1;0.6287739000035799;002;FSJS96;2019_Nov_27_1828;iat_vr;60.11613234344752;
4;GEBÄUDE;Gemacht;p;1;4;24;15;p;1;0.6961099000036484;002;FSJS96;2019_Nov_27_1828;iat_vr;60.11613234344752;
4;WASSER;Natur;q;1;5;25;11;q;1;1.0162650999991456;002;FSJS96;2019_Nov_27_1828;iat_vr;60.11613234344752;
4;COMPUTER;Gemacht;p;1;6;26;18;p;1;0.546991800001706;002;FSJS96;2019_Nov_27_1828;iat_vr;60.11613234344752;
4;LAMPE;Gemacht;p;1;7;27;19;p;1;0.5306628999969689;002;FSJS96;2019_Nov_27_1828;iat_vr;60.11613234344752;
4;SCHÄDLICH;negativ;q;1;8;28;3;q;1;0.5638019999969401;002;FSJS96;2019_Nov_27_1828;iat_vr;60.11613234344752;
4;BAUM;Natur;q;1;9;29;10;q;1;0.7824448000028497;002;FSJS96;2019_Nov_27_1828;iat_vr;60.11613234344752;
4;HERVORRAGEND;positiv;p;1;10;30;7;p;1;0.689192700003332;002;FSJS96;2019_Nov_27_1828;iat_vr;60.11613234344752;
4;AUSGEZEICHNET;positiv;p;1;11;31;5;p;1;0.46143170000141254;002;FSJS96;2019_Nov_27_1828;iat_vr;60.11613234344752;
4;GUT;positiv;p;1;12;32;9;p;1;0.5492842999956338;002;FSJS96;2019_Nov_27_1828;iat_vr;60.11613234344752;
4;POSITIV;positiv;p;1;13;33;8;p;1;0.5178655999989132;002;FSJS96;2019_Nov_27_1828;iat_vr;60.11613234344752;
4;SCHLIMM;negativ;q;1;14;34;0;q;1;0.5972255000015139;002;FSJS96;2019_Nov_27_1828;iat_vr;60.11613234344752;
4;BLUME;Natur;q;1;15;35;12;p;0;0.5313870999962091;002;FSJS96;2019_Nov_27_1828;iat_vr;60.11613234344752;
4;KLEIDER;Gemacht;p;1;16;36;17;p;1;0.9774196999933338;002;FSJS96;2019_Nov_27_1828;iat_vr;60.11613234344752;
4;SCHLECHT;negativ;q;1;17;37;1;q;1;0.5297824000008404;002;FSJS96;2019_Nov_27_1828;iat_vr;60.11613234344752;
4;NEGATIV;negativ;q;1;18;38;2;q;1;0.545717600005446;002;FSJS96;2019_Nov_27_1828;iat_vr;60.11613234344752;
4;STEIN;Natur;q;1;19;39;14;q;1;1.9474916000035591;002;FSJS96;2019_Nov_27_1828;iat_vr;60.11613234344752;
;;;;;;;;;;;002;FSJS96;2019_Nov_27_1828;iat_vr;60.11613234344752;
5;KLEIDER;Gemacht;q;0;0;0;7;q;1;1.6690535000016098;002;FSJS96;2019_Nov_27_1828;iat_vr;60.11613234344752;
5;BLUME;Natur;p;0;1;1;2;p;1;0.7485804000025382;002;FSJS96;2019_Nov_27_1828;iat_vr;60.11613234344752;
5;TIER;Natur;p;0;2;2;3;p;1;0.4657015999982832;002;FSJS96;2019_Nov_27_1828;iat_vr;60.11613234344752;
5;GEBÄUDE;Gemacht;q;0;3;3;5;q;1;0.6282647999978508;002;FSJS96;2019_Nov_27_1828;iat_vr;60.11613234344752;
5;COMPUTER;Gemacht;q;0;4;4;8;q;1;0.6637774000046193;002;FSJS96;2019_Nov_27_1828;iat_vr;60.11613234344752;
5;WASSER;Natur;p;0;5;5;1;p;1;0.6631448000043747;002;FSJS96;2019_Nov_27_1828;iat_vr;60.11613234344752;
5;STADT;Gemacht;q;0;6;6;6;q;1;0.6147003000005498;002;FSJS96;2019_Nov_27_1828;iat_vr;60.11613234344752;
5;BAUM;Natur;p;0;7;7;0;p;1;0.982060400005139;002;FSJS96;2019_Nov_27_1828;iat_vr;60.11613234344752;
5;LAMPE;Gemacht;q;0;8;8;9;q;1;0.6646570000011707;002;FSJS96;2019_Nov_27_1828;iat_vr;60.11613234344752;
5;STEIN;Natur;p;0;9;9;4;p;1;0.7118300000001909;002;FSJS96;2019_Nov_27_1828;iat_vr;60.11613234344752;
5;KLEIDER;Gemacht;q;1;0;10;7;q;1;0.6305160999982036;002;FSJS96;2019_Nov_27_1828;iat_vr;60.11613234344752;
5;WASSER;Natur;p;1;1;11;1;p;1;0.6328581999987364;002;FSJS96;2019_Nov_27_1828;iat_vr;60.11613234344752;
5;STEIN;Natur;p;1;2;12;4;q;0;0.4802498999997624;002;FSJS96;2019_Nov_27_1828;iat_vr;60.11613234344752;
5;STADT;Gemacht;q;1;3;13;6;q;1;0.7149403000003076;002;FSJS96;2019_Nov_27_1828;iat_vr;60.11613234344752;
5;BAUM;Natur;p;1;4;14;0;p;1;0.6151700999980676;002;FSJS96;2019_Nov_27_1828;iat_vr;60.11613234344752;
5;LAMPE;Gemacht;q;1;5;15;9;q;1;0.6807769000006374;002;FSJS96;2019_Nov_27_1828;iat_vr;60.11613234344752;
5;BLUME;Natur;p;1;6;16;2;p;1;0.6313809999992372;002;FSJS96;2019_Nov_27_1828;iat_vr;60.11613234344752;
5;GEBÄUDE;Gemacht;q;1;7;17;5;q;1;0.7298450000016601;002;FSJS96;2019_Nov_27_1828;iat_vr;60.11613234344752;
5;TIER;Natur;p;1;8;18;3;p;1;0.7310524999993504;002;FSJS96;2019_Nov_27_1828;iat_vr;60.11613234344752;
5;COMPUTER;Gemacht;q;1;9;19;8;q;1;0.5492228000002797;002;FSJS96;2019_Nov_27_1828;iat_vr;60.11613234344752;
;;;;;;;;;;;002;FSJS96;2019_Nov_27_1828;iat_vr;60.11613234344752;
6;WASSER;Natur;p;0;0;0;1;p;1;1.0614081999956397;002;FSJS96;2019_Nov_27_1828;iat_vr;60.11613234344752;
6;GUT;positiv;p;0;1;1;19;p;1;0.5814581000013277;002;FSJS96;2019_Nov_27_1828;iat_vr;60.11613234344752;
6;STADT;Gemacht;q;0;2;2;6;q;1;1.2855086000054143;002;FSJS96;2019_Nov_27_1828;iat_vr;60.11613234344752;
6;AUSGEZEICHNET;positiv;p;0;3;3;15;p;1;0.579296500000055;002;FSJS96;2019_Nov_27_1828;iat_vr;60.11613234344752;
6;STEIN;Natur;p;0;4;4;4;p;1;0.685610499996983;002;FSJS96;2019_Nov_27_1828;iat_vr;60.11613234344752;
6;BAUM;Natur;p;0;5;5;0;p;1;0.6640751000013552;002;FSJS96;2019_Nov_27_1828;iat_vr;60.11613234344752;
6;TIER;Natur;p;0;6;6;3;p;1;0.7817825000020093;002;FSJS96;2019_Nov_27_1828;iat_vr;60.11613234344752;
6;SCHWACH;negativ;q;0;7;7;14;q;1;0.6467377000008128;002;FSJS96;2019_Nov_27_1828;iat_vr;60.11613234344752;
6;EINWANDFREI;positiv;p;0;8;8;16;p;1;1.4950607999999193;002;FSJS96;2019_Nov_27_1828;iat_vr;60.11613234344752;
6;SCHLECHT;negativ;q;0;9;9;11;q;1;0.5466252000042005;002;FSJS96;2019_Nov_27_1828;iat_vr;60.11613234344752;
6;GEBÄUDE;Gemacht;q;0;10;10;5;q;1;0.8148722000041744;002;FSJS96;2019_Nov_27_1828;iat_vr;60.11613234344752;
6;SCHLIMM;negativ;q;0;11;11;10;q;1;0.5854537000050186;002;FSJS96;2019_Nov_27_1828;iat_vr;60.11613234344752;
6;COMPUTER;Gemacht;q;0;12;12;8;q;1;0.49654119999468094;002;FSJS96;2019_Nov_27_1828;iat_vr;60.11613234344752;
6;POSITIV;positiv;p;0;13;13;18;p;1;0.5940996999997878;002;FSJS96;2019_Nov_27_1828;iat_vr;60.11613234344752;
6;LAMPE;Gemacht;q;0;14;14;9;q;1;0.6319121999986237;002;FSJS96;2019_Nov_27_1828;iat_vr;60.11613234344752;
6;KLEIDER;Gemacht;q;0;15;15;7;q;1;0.6109855999966385;002;FSJS96;2019_Nov_27_1828;iat_vr;60.11613234344752;
6;SCHÄDLICH;negativ;q;0;16;16;13;q;1;0.5456701000002795;002;FSJS96;2019_Nov_27_1828;iat_vr;60.11613234344752;
6;NEGATIV;negativ;q;0;17;17;12;q;1;0.49721629999839934;002;FSJS96;2019_Nov_27_1828;iat_vr;60.11613234344752;
6;BLUME;Natur;p;0;18;18;2;p;1;0.6476086000038777;002;FSJS96;2019_Nov_27_1828;iat_vr;60.11613234344752;
6;HERVORRAGEND;positiv;p;0;19;19;17;p;1;0.5268431000004057;002;FSJS96;2019_Nov_27_1828;iat_vr;60.11613234344752;
;;;;;;;;;;;002;FSJS96;2019_Nov_27_1828;iat_vr;60.11613234344752;
7;SCHLECHT;negativ;q;0;0;0;11;q;1;0.816172099999676;002;FSJS96;2019_Nov_27_1828;iat_vr;60.11613234344752;
7;WASSER;Natur;p;0;1;1;1;p;1;0.9124110000047949;002;FSJS96;2019_Nov_27_1828;iat_vr;60.11613234344752;
7;EINWANDFREI;positiv;p;0;2;2;16;p;1;0.6619158000030438;002;FSJS96;2019_Nov_27_1828;iat_vr;60.11613234344752;
7;HERVORRAGEND;positiv;p;0;3;3;17;p;1;0.5101049000004423;002;FSJS96;2019_Nov_27_1828;iat_vr;60.11613234344752;
7;AUSGEZEICHNET;positiv;p;0;4;4;15;p;1;0.5255297000039718;002;FSJS96;2019_Nov_27_1828;iat_vr;60.11613234344752;
7;POSITIV;positiv;p;0;5;5;18;p;1;0.6472279000008712;002;FSJS96;2019_Nov_27_1828;iat_vr;60.11613234344752;
7;TIER;Natur;p;0;6;6;3;p;1;0.6324020999963977;002;FSJS96;2019_Nov_27_1828;iat_vr;60.11613234344752;
7;KLEIDER;Gemacht;q;0;7;7;7;q;1;0.5637322999973549;002;FSJS96;2019_Nov_27_1828;iat_vr;60.11613234344752;
7;STEIN;Natur;p;0;8;8;4;p;1;0.5972732000009273;002;FSJS96;2019_Nov_27_1828;iat_vr;60.11613234344752;
7;GEBÄUDE;Gemacht;q;0;9;9;5;q;1;0.5974558000016259;002;FSJS96;2019_Nov_27_1828;iat_vr;60.11613234344752;
7;COMPUTER;Gemacht;q;0;10;10;8;q;1;0.6359811000002082;002;FSJS96;2019_Nov_27_1828;iat_vr;60.11613234344752;
7;SCHLIMM;negativ;q;0;11;11;10;q;1;0.7474551000050269;002;FSJS96;2019_Nov_27_1828;iat_vr;60.11613234344752;
7;NEGATIV;negativ;q;0;12;12;12;q;1;0.6313070999967749;002;FSJS96;2019_Nov_27_1828;iat_vr;60.11613234344752;
7;STADT;Gemacht;q;0;13;13;6;q;1;0.796909600001527;002;FSJS96;2019_Nov_27_1828;iat_vr;60.11613234344752;
7;BLUME;Natur;p;0;14;14;2;p;1;0.5466730999978608;002;FSJS96;2019_Nov_27_1828;iat_vr;60.11613234344752;
7;SCHWACH;negativ;q;0;15;15;14;q;1;0.5479558000006364;002;FSJS96;2019_Nov_27_1828;iat_vr;60.11613234344752;
7;LAMPE;Gemacht;q;0;16;16;9;q;1;0.6652748999986215;002;FSJS96;2019_Nov_27_1828;iat_vr;60.11613234344752;
7;BAUM;Natur;p;0;17;17;0;p;1;0.7937183000030927;002;FSJS96;2019_Nov_27_1828;iat_vr;60.11613234344752;
7;SCHÄDLICH;negativ;q;0;18;18;13;q;1;0.5307529999990948;002;FSJS96;2019_Nov_27_1828;iat_vr;60.11613234344752;
7;GUT;positiv;p;0;19;19;19;p;1;0.5825071999934153;002;FSJS96;2019_Nov_27_1828;iat_vr;60.11613234344752;
7;BLUME;Natur;p;1;0;20;2;p;1;0.6292813999971258;002;FSJS96;2019_Nov_27_1828;iat_vr;60.11613234344752;
7;WASSER;Natur;p;1;1;21;1;p;1;0.49671330000273883;002;FSJS96;2019_Nov_27_1828;iat_vr;60.11613234344752;
7;SCHLIMM;negativ;q;1;2;22;10;q;1;0.5814014999996289;002;FSJS96;2019_Nov_27_1828;iat_vr;60.11613234344752;
7;POSITIV;positiv;p;1;3;23;18;p;1;0.6467736999984481;002;FSJS96;2019_Nov_27_1828;iat_vr;60.11613234344752;
7;HERVORRAGEND;positiv;p;1;4;24;17;p;1;0.5947839000000386;002;FSJS96;2019_Nov_27_1828;iat_vr;60.11613234344752;
7;SCHLECHT;negativ;q;1;5;25;11;q;1;0.5442502999940189;002;FSJS96;2019_Nov_27_1828;iat_vr;60.11613234344752;
7;EINWANDFREI;positiv;p;1;6;26;16;p;1;0.5628499999947962;002;FSJS96;2019_Nov_27_1828;iat_vr;60.11613234344752;
7;AUSGEZEICHNET;positiv;p;1;7;27;15;p;1;0.5594644000011613;002;FSJS96;2019_Nov_27_1828;iat_vr;60.11613234344752;
7;GUT;positiv;p;1;8;28;19;p;1;0.4516166000030353;002;FSJS96;2019_Nov_27_1828;iat_vr;60.11613234344752;
7;BAUM;Natur;p;1;9;29;0;p;1;0.5149596999981441;002;FSJS96;2019_Nov_27_1828;iat_vr;60.11613234344752;
7;GEBÄUDE;Gemacht;q;1;10;30;5;q;1;0.5452815000026021;002;FSJS96;2019_Nov_27_1828;iat_vr;60.11613234344752;
7;NEGATIV;negativ;q;1;11;31;12;q;1;0.5786991999993916;002;FSJS96;2019_Nov_27_1828;iat_vr;60.11613234344752;
7;SCHWACH;negativ;q;1;12;32;14;q;1;0.5118692999967607;002;FSJS96;2019_Nov_27_1828;iat_vr;60.11613234344752;
7;TIER;Natur;p;1;13;33;3;p;1;0.8486862999998266;002;FSJS96;2019_Nov_27_1828;iat_vr;60.11613234344752;
7;KLEIDER;Gemacht;q;1;14;34;7;q;1;0.5844791999988956;002;FSJS96;2019_Nov_27_1828;iat_vr;60.11613234344752;
7;STADT;Gemacht;q;1;15;35;6;q;1;0.930906599998707;002;FSJS96;2019_Nov_27_1828;iat_vr;60.11613234344752;
7;SCHÄDLICH;negativ;q;1;16;36;13;q;1;0.5807225000025937;002;FSJS96;2019_Nov_27_1828;iat_vr;60.11613234344752;
7;STEIN;Natur;p;1;17;37;4;p;1;0.6950782999992953;002;FSJS96;2019_Nov_27_1828;iat_vr;60.11613234344752;
7;LAMPE;Gemacht;q;1;18;38;9;p;0;0.580944699999236;002;FSJS96;2019_Nov_27_1828;iat_vr;60.11613234344752;
7;COMPUTER;Gemacht;q;1;19;39;8;q;1;1.3626495000062278;002;FSJS96;2019_Nov_27_1828;iat_vr;60.11613234344752;
;;;;;;;;;;;002;FSJS96;2019_Nov_27_1828;iat_vr;60.11613234344752;
