Block;Word;Category;CorrResp;trials.thisRepN;trials.thisTrialN;trials.thisN;trials.thisIndex;key_resp_2.keys;key_resp_2.corr;key_resp_2.rt;session;participant;date;expName;frameRate;
1;STADT;Gemacht;p;0;0;0;6;p;1;1.10610970000198;001;FSLK99;2019_Dec_03_1451;iat_vr;60.03121623208889;
1;BAUM;Natur;q;0;1;1;0;q;1;0.6920422000002873;001;FSLK99;2019_Dec_03_1451;iat_vr;60.03121623208889;
1;GEBÄUDE;Gemacht;p;0;2;2;5;p;1;0.6885438999997859;001;FSLK99;2019_Dec_03_1451;iat_vr;60.03121623208889;
1;COMPUTER;Gemacht;p;0;3;3;8;p;1;0.5891128000002936;001;FSLK99;2019_Dec_03_1451;iat_vr;60.03121623208889;
1;LAMPE;Gemacht;p;0;4;4;9;p;1;0.6128215000026103;001;FSLK99;2019_Dec_03_1451;iat_vr;60.03121623208889;
1;BLUME;Natur;q;0;5;5;2;q;1;0.6822628999980225;001;FSLK99;2019_Dec_03_1451;iat_vr;60.03121623208889;
1;STEIN;Natur;q;0;6;6;4;p;0;0.7247892000013962;001;FSLK99;2019_Dec_03_1451;iat_vr;60.03121623208889;
1;KLEIDER;Gemacht;p;0;7;7;7;p;1;1.0612481000025582;001;FSLK99;2019_Dec_03_1451;iat_vr;60.03121623208889;
1;WASSER;Natur;q;0;8;8;1;q;1;0.6781897999971989;001;FSLK99;2019_Dec_03_1451;iat_vr;60.03121623208889;
1;TIER;Natur;q;0;9;9;3;q;1;1.0325430999982927;001;FSLK99;2019_Dec_03_1451;iat_vr;60.03121623208889;
1;BLUME;Natur;q;1;0;10;2;q;1;0.6648018000014417;001;FSLK99;2019_Dec_03_1451;iat_vr;60.03121623208889;
1;WASSER;Natur;q;1;1;11;1;q;1;0.5794134999996459;001;FSLK99;2019_Dec_03_1451;iat_vr;60.03121623208889;
1;GEBÄUDE;Gemacht;p;1;2;12;5;p;1;0.6823197000012442;001;FSLK99;2019_Dec_03_1451;iat_vr;60.03121623208889;
1;BAUM;Natur;q;1;3;13;0;q;1;0.6653121000017563;001;FSLK99;2019_Dec_03_1451;iat_vr;60.03121623208889;
1;KLEIDER;Gemacht;p;1;4;14;7;p;1;0.7324417999989237;001;FSLK99;2019_Dec_03_1451;iat_vr;60.03121623208889;
1;LAMPE;Gemacht;p;1;5;15;9;p;1;0.6118954999983544;001;FSLK99;2019_Dec_03_1451;iat_vr;60.03121623208889;
1;COMPUTER;Gemacht;p;1;6;16;8;p;1;0.6148489999977755;001;FSLK99;2019_Dec_03_1451;iat_vr;60.03121623208889;
1;TIER;Natur;q;1;7;17;3;q;1;0.7833448999990651;001;FSLK99;2019_Dec_03_1451;iat_vr;60.03121623208889;
1;STEIN;Natur;q;1;8;18;4;q;1;1.565542500000447;001;FSLK99;2019_Dec_03_1451;iat_vr;60.03121623208889;
1;STADT;Gemacht;p;1;9;19;6;p;1;1.4310609999993176;001;FSLK99;2019_Dec_03_1451;iat_vr;60.03121623208889;
;;;;;;;;;;;001;FSLK99;2019_Dec_03_1451;iat_vr;60.03121623208889;
2;GUT;positiv;p;0;0;0;9;p;1;1.4334092999997665;001;FSLK99;2019_Dec_03_1451;iat_vr;60.03121623208889;
2;NEGATIV;negativ;q;0;1;1;2;q;1;0.6100858999998309;001;FSLK99;2019_Dec_03_1451;iat_vr;60.03121623208889;
2;SCHLECHT;negativ;q;0;2;2;1;q;1;1.331255000000965;001;FSLK99;2019_Dec_03_1451;iat_vr;60.03121623208889;
2;POSITIV;positiv;p;0;3;3;8;p;1;0.796208600000682;001;FSLK99;2019_Dec_03_1451;iat_vr;60.03121623208889;
2;AUSGEZEICHNET;positiv;p;0;4;4;5;p;1;1.3068540999993274;001;FSLK99;2019_Dec_03_1451;iat_vr;60.03121623208889;
2;SCHLIMM;negativ;q;0;5;5;0;q;1;0.9296524000019417;001;FSLK99;2019_Dec_03_1451;iat_vr;60.03121623208889;
2;SCHÄDLICH;negativ;q;0;6;6;3;q;1;0.9781470999987505;001;FSLK99;2019_Dec_03_1451;iat_vr;60.03121623208889;
2;EINWANDFREI;positiv;p;0;7;7;6;p;1;1.4460890000009385;001;FSLK99;2019_Dec_03_1451;iat_vr;60.03121623208889;
2;HERVORRAGEND;positiv;p;0;8;8;7;p;1;0.9690061000001151;001;FSLK99;2019_Dec_03_1451;iat_vr;60.03121623208889;
2;SCHWACH;negativ;q;0;9;9;4;q;1;1.345685999996931;001;FSLK99;2019_Dec_03_1451;iat_vr;60.03121623208889;
2;SCHÄDLICH;negativ;q;1;0;10;3;q;1;1.2978489999986778;001;FSLK99;2019_Dec_03_1451;iat_vr;60.03121623208889;
2;SCHWACH;negativ;q;1;1;11;4;q;1;0.9816589000001841;001;FSLK99;2019_Dec_03_1451;iat_vr;60.03121623208889;
2;AUSGEZEICHNET;positiv;p;1;2;12;5;p;1;0.7598036000017601;001;FSLK99;2019_Dec_03_1451;iat_vr;60.03121623208889;
2;GUT;positiv;p;1;3;13;9;p;1;0.4662422000001243;001;FSLK99;2019_Dec_03_1451;iat_vr;60.03121623208889;
2;POSITIV;positiv;p;1;4;14;8;p;1;0.4318846999995003;001;FSLK99;2019_Dec_03_1451;iat_vr;60.03121623208889;
2;EINWANDFREI;positiv;p;1;5;15;6;p;1;0.5802855000001728;001;FSLK99;2019_Dec_03_1451;iat_vr;60.03121623208889;
2;NEGATIV;negativ;q;1;6;16;2;q;1;0.7315232000000833;001;FSLK99;2019_Dec_03_1451;iat_vr;60.03121623208889;
2;HERVORRAGEND;positiv;p;1;7;17;7;p;1;0.879332800002885;001;FSLK99;2019_Dec_03_1451;iat_vr;60.03121623208889;
2;SCHLIMM;negativ;q;1;8;18;0;q;1;0.7286168999999063;001;FSLK99;2019_Dec_03_1451;iat_vr;60.03121623208889;
2;SCHLECHT;negativ;q;1;9;19;1;q;1;0.5311020999979519;001;FSLK99;2019_Dec_03_1451;iat_vr;60.03121623208889;
;;;;;;;;;;;001;FSLK99;2019_Dec_03_1451;iat_vr;60.03121623208889;
3;SCHLECHT;negativ;q;0;0;0;1;q;1;0.8683731999990414;001;FSLK99;2019_Dec_03_1451;iat_vr;60.03121623208889;
3;LAMPE;Gemacht;p;0;1;1;19;p;1;0.8133946000016294;001;FSLK99;2019_Dec_03_1451;iat_vr;60.03121623208889;
3;SCHLIMM;negativ;q;0;2;2;0;q;1;3.946627500001341;001;FSLK99;2019_Dec_03_1451;iat_vr;60.03121623208889;
3;HERVORRAGEND;positiv;p;0;3;3;7;p;1;0.9260867000011785;001;FSLK99;2019_Dec_03_1451;iat_vr;60.03121623208889;
3;KLEIDER;Gemacht;p;0;4;4;17;p;1;1.731382099998882;001;FSLK99;2019_Dec_03_1451;iat_vr;60.03121623208889;
3;AUSGEZEICHNET;positiv;p;0;5;5;5;p;1;1.6924910999987333;001;FSLK99;2019_Dec_03_1451;iat_vr;60.03121623208889;
3;POSITIV;positiv;p;0;6;6;8;p;1;0.6323083000024781;001;FSLK99;2019_Dec_03_1451;iat_vr;60.03121623208889;
3;STEIN;Natur;q;0;7;7;14;q;1;0.982341599999927;001;FSLK99;2019_Dec_03_1451;iat_vr;60.03121623208889;
3;SCHÄDLICH;negativ;q;0;8;8;3;q;1;1.128212400002667;001;FSLK99;2019_Dec_03_1451;iat_vr;60.03121623208889;
3;STADT;Gemacht;p;0;9;9;16;p;1;2.814739399997052;001;FSLK99;2019_Dec_03_1451;iat_vr;60.03121623208889;
3;WASSER;Natur;q;0;10;10;11;q;1;0.7983776000000944;001;FSLK99;2019_Dec_03_1451;iat_vr;60.03121623208889;
3;TIER;Natur;q;0;11;11;13;q;1;0.8334569000035117;001;FSLK99;2019_Dec_03_1451;iat_vr;60.03121623208889;
3;BAUM;Natur;q;0;12;12;10;q;1;0.6486576999996032;001;FSLK99;2019_Dec_03_1451;iat_vr;60.03121623208889;
3;GEBÄUDE;Gemacht;p;0;13;13;15;p;1;0.7153823000007833;001;FSLK99;2019_Dec_03_1451;iat_vr;60.03121623208889;
3;GUT;positiv;p;0;14;14;9;p;1;0.7654299999994691;001;FSLK99;2019_Dec_03_1451;iat_vr;60.03121623208889;
3;NEGATIV;negativ;q;0;15;15;2;q;1;0.7647489000009955;001;FSLK99;2019_Dec_03_1451;iat_vr;60.03121623208889;
3;EINWANDFREI;positiv;p;0;16;16;6;p;1;0.9474058000014338;001;FSLK99;2019_Dec_03_1451;iat_vr;60.03121623208889;
3;COMPUTER;Gemacht;p;0;17;17;18;p;1;0.6149619000025268;001;FSLK99;2019_Dec_03_1451;iat_vr;60.03121623208889;
3;SCHWACH;negativ;q;0;18;18;4;q;1;0.8818657000010717;001;FSLK99;2019_Dec_03_1451;iat_vr;60.03121623208889;
3;BLUME;Natur;q;0;19;19;12;q;1;0.7355674999998882;001;FSLK99;2019_Dec_03_1451;iat_vr;60.03121623208889;
;;;;;;;;;;;001;FSLK99;2019_Dec_03_1451;iat_vr;60.03121623208889;
4;KLEIDER;Gemacht;p;0;0;0;17;p;1;0.9840374999985215;001;FSLK99;2019_Dec_03_1451;iat_vr;60.03121623208889;
4;LAMPE;Gemacht;p;0;1;1;19;p;1;0.729310800001258;001;FSLK99;2019_Dec_03_1451;iat_vr;60.03121623208889;
4;SCHLIMM;negativ;q;0;2;2;0;q;1;0.7629985999992641;001;FSLK99;2019_Dec_03_1451;iat_vr;60.03121623208889;
4;SCHLECHT;negativ;q;0;3;3;1;q;1;0.6980903000003309;001;FSLK99;2019_Dec_03_1451;iat_vr;60.03121623208889;
4;STEIN;Natur;q;0;4;4;14;q;1;1.6821386000010534;001;FSLK99;2019_Dec_03_1451;iat_vr;60.03121623208889;
4;SCHÄDLICH;negativ;q;0;5;5;3;q;1;0.7141382000008889;001;FSLK99;2019_Dec_03_1451;iat_vr;60.03121623208889;
4;HERVORRAGEND;positiv;p;0;6;6;7;p;1;0.7357816000003368;001;FSLK99;2019_Dec_03_1451;iat_vr;60.03121623208889;
4;GUT;positiv;p;0;7;7;9;p;1;0.6330205000012938;001;FSLK99;2019_Dec_03_1451;iat_vr;60.03121623208889;
4;EINWANDFREI;positiv;p;0;8;8;6;p;1;0.6796505999991496;001;FSLK99;2019_Dec_03_1451;iat_vr;60.03121623208889;
4;WASSER;Natur;q;0;9;9;11;q;1;0.798551599997154;001;FSLK99;2019_Dec_03_1451;iat_vr;60.03121623208889;
4;POSITIV;positiv;p;0;10;10;8;p;1;1.2796275000000605;001;FSLK99;2019_Dec_03_1451;iat_vr;60.03121623208889;
4;GEBÄUDE;Gemacht;p;0;11;11;15;p;1;0.7951140000004671;001;FSLK99;2019_Dec_03_1451;iat_vr;60.03121623208889;
4;AUSGEZEICHNET;positiv;p;0;12;12;5;p;1;0.7623709999970743;001;FSLK99;2019_Dec_03_1451;iat_vr;60.03121623208889;
4;COMPUTER;Gemacht;p;0;13;13;18;p;1;0.5648428999993484;001;FSLK99;2019_Dec_03_1451;iat_vr;60.03121623208889;
4;TIER;Natur;q;0;14;14;13;q;1;1.0806942999988678;001;FSLK99;2019_Dec_03_1451;iat_vr;60.03121623208889;
4;BAUM;Natur;q;0;15;15;10;q;1;0.4815552000000025;001;FSLK99;2019_Dec_03_1451;iat_vr;60.03121623208889;
4;NEGATIV;negativ;q;0;16;16;2;q;1;0.8636899000011908;001;FSLK99;2019_Dec_03_1451;iat_vr;60.03121623208889;
4;STADT;Gemacht;p;0;17;17;16;p;1;0.8810546999993676;001;FSLK99;2019_Dec_03_1451;iat_vr;60.03121623208889;
4;BLUME;Natur;q;0;18;18;12;p;0;0.42958899999939604;001;FSLK99;2019_Dec_03_1451;iat_vr;60.03121623208889;
4;SCHWACH;negativ;q;0;19;19;4;q;1;2.07911470000181;001;FSLK99;2019_Dec_03_1451;iat_vr;60.03121623208889;
4;KLEIDER;Gemacht;p;1;0;20;17;p;1;0.6284670000022743;001;FSLK99;2019_Dec_03_1451;iat_vr;60.03121623208889;
4;SCHWACH;negativ;q;1;1;21;4;q;1;0.7149607999999716;001;FSLK99;2019_Dec_03_1451;iat_vr;60.03121623208889;
4;GEBÄUDE;Gemacht;p;1;2;22;15;p;1;0.6289627999976801;001;FSLK99;2019_Dec_03_1451;iat_vr;60.03121623208889;
4;GUT;positiv;p;1;3;23;9;p;1;1.049401599997509;001;FSLK99;2019_Dec_03_1451;iat_vr;60.03121623208889;
4;NEGATIV;negativ;q;1;4;24;2;q;1;0.628890500000125;001;FSLK99;2019_Dec_03_1451;iat_vr;60.03121623208889;
4;POSITIV;positiv;p;1;5;25;8;p;1;0.5962504999988596;001;FSLK99;2019_Dec_03_1451;iat_vr;60.03121623208889;
4;SCHLECHT;negativ;q;1;6;26;1;q;1;0.7777270000005956;001;FSLK99;2019_Dec_03_1451;iat_vr;60.03121623208889;
4;SCHÄDLICH;negativ;q;1;7;27;3;q;1;0.5774947999998403;001;FSLK99;2019_Dec_03_1451;iat_vr;60.03121623208889;
4;STADT;Gemacht;p;1;8;28;16;p;1;0.8142930999965756;001;FSLK99;2019_Dec_03_1451;iat_vr;60.03121623208889;
4;HERVORRAGEND;positiv;p;1;9;29;7;p;1;1.2294227000020328;001;FSLK99;2019_Dec_03_1451;iat_vr;60.03121623208889;
4;STEIN;Natur;q;1;10;30;14;q;1;1.3842117999993206;001;FSLK99;2019_Dec_03_1451;iat_vr;60.03121623208889;
4;LAMPE;Gemacht;p;1;11;31;19;p;1;0.5807735999987926;001;FSLK99;2019_Dec_03_1451;iat_vr;60.03121623208889;
4;TIER;Natur;q;1;12;32;13;q;1;0.8155758000029891;001;FSLK99;2019_Dec_03_1451;iat_vr;60.03121623208889;
4;SCHLIMM;negativ;q;1;13;33;0;q;1;1.2023316999984672;001;FSLK99;2019_Dec_03_1451;iat_vr;60.03121623208889;
4;BLUME;Natur;q;1;14;34;12;q;1;0.7853902999995626;001;FSLK99;2019_Dec_03_1451;iat_vr;60.03121623208889;
4;AUSGEZEICHNET;positiv;p;1;15;35;5;p;1;0.5949406999970961;001;FSLK99;2019_Dec_03_1451;iat_vr;60.03121623208889;
4;WASSER;Natur;q;1;16;36;11;q;1;0.8797315000010713;001;FSLK99;2019_Dec_03_1451;iat_vr;60.03121623208889;
4;COMPUTER;Gemacht;p;1;17;37;18;p;1;0.6480400999971607;001;FSLK99;2019_Dec_03_1451;iat_vr;60.03121623208889;
4;BAUM;Natur;q;1;18;38;10;q;1;0.9293201000000408;001;FSLK99;2019_Dec_03_1451;iat_vr;60.03121623208889;
4;EINWANDFREI;positiv;p;1;19;39;6;p;1;1.045872300001065;001;FSLK99;2019_Dec_03_1451;iat_vr;60.03121623208889;
;;;;;;;;;;;001;FSLK99;2019_Dec_03_1451;iat_vr;60.03121623208889;
5;COMPUTER;Gemacht;q;0;0;0;8;q;1;1.001619100003154;001;FSLK99;2019_Dec_03_1451;iat_vr;60.03121623208889;
5;BLUME;Natur;p;0;1;1;2;p;1;0.7313580999980331;001;FSLK99;2019_Dec_03_1451;iat_vr;60.03121623208889;
5;STADT;Gemacht;q;0;2;2;6;q;1;0.9647564000006241;001;FSLK99;2019_Dec_03_1451;iat_vr;60.03121623208889;
5;WASSER;Natur;p;0;3;3;1;p;1;0.7647460000007413;001;FSLK99;2019_Dec_03_1451;iat_vr;60.03121623208889;
5;KLEIDER;Gemacht;q;0;4;4;7;q;1;1.0351661999993667;001;FSLK99;2019_Dec_03_1451;iat_vr;60.03121623208889;
5;STEIN;Natur;p;0;5;5;4;q;0;0.5822160999996413;001;FSLK99;2019_Dec_03_1451;iat_vr;60.03121623208889;
5;GEBÄUDE;Gemacht;q;0;6;6;5;q;1;3.341396200001327;001;FSLK99;2019_Dec_03_1451;iat_vr;60.03121623208889;
5;BAUM;Natur;p;0;7;7;0;p;1;0.7488848000029975;001;FSLK99;2019_Dec_03_1451;iat_vr;60.03121623208889;
5;TIER;Natur;p;0;8;8;3;p;1;1.3709453000010399;001;FSLK99;2019_Dec_03_1451;iat_vr;60.03121623208889;
5;LAMPE;Gemacht;q;0;9;9;9;q;1;0.6497534000009182;001;FSLK99;2019_Dec_03_1451;iat_vr;60.03121623208889;
5;TIER;Natur;p;1;0;10;3;p;1;0.9648477000009734;001;FSLK99;2019_Dec_03_1451;iat_vr;60.03121623208889;
5;BAUM;Natur;p;1;1;11;0;p;1;0.9826820999987831;001;FSLK99;2019_Dec_03_1451;iat_vr;60.03121623208889;
5;LAMPE;Gemacht;q;1;2;12;9;q;1;0.770387300002767;001;FSLK99;2019_Dec_03_1451;iat_vr;60.03121623208889;
5;KLEIDER;Gemacht;q;1;3;13;7;q;1;0.6632342000011704;001;FSLK99;2019_Dec_03_1451;iat_vr;60.03121623208889;
5;BLUME;Natur;p;1;4;14;2;p;1;0.6641105000016978;001;FSLK99;2019_Dec_03_1451;iat_vr;60.03121623208889;
5;STEIN;Natur;p;1;5;15;4;q;0;0.7019848999989335;001;FSLK99;2019_Dec_03_1451;iat_vr;60.03121623208889;
5;STADT;Gemacht;q;1;6;16;6;q;1;1.7820527000003494;001;FSLK99;2019_Dec_03_1451;iat_vr;60.03121623208889;
5;GEBÄUDE;Gemacht;q;1;7;17;5;q;1;0.8629719999989902;001;FSLK99;2019_Dec_03_1451;iat_vr;60.03121623208889;
5;COMPUTER;Gemacht;q;1;8;18;8;q;1;0.5821018999995431;001;FSLK99;2019_Dec_03_1451;iat_vr;60.03121623208889;
5;WASSER;Natur;p;1;9;19;1;p;1;0.6304085000010673;001;FSLK99;2019_Dec_03_1451;iat_vr;60.03121623208889;
;;;;;;;;;;;001;FSLK99;2019_Dec_03_1451;iat_vr;60.03121623208889;
6;SCHWACH;negativ;q;0;0;0;14;q;1;1.0354781999994884;001;FSLK99;2019_Dec_03_1451;iat_vr;60.03121623208889;
6;NEGATIV;negativ;q;0;1;1;12;q;1;0.6108882000007725;001;FSLK99;2019_Dec_03_1451;iat_vr;60.03121623208889;
6;GEBÄUDE;Gemacht;q;0;2;2;5;q;1;0.5798819999981788;001;FSLK99;2019_Dec_03_1451;iat_vr;60.03121623208889;
6;BAUM;Natur;p;0;3;3;0;p;1;0.6999192999974184;001;FSLK99;2019_Dec_03_1451;iat_vr;60.03121623208889;
6;COMPUTER;Gemacht;q;0;4;4;8;q;1;0.695468300000357;001;FSLK99;2019_Dec_03_1451;iat_vr;60.03121623208889;
6;AUSGEZEICHNET;positiv;p;0;5;5;15;p;1;0.8283976999991864;001;FSLK99;2019_Dec_03_1451;iat_vr;60.03121623208889;
6;POSITIV;positiv;p;0;6;6;18;p;1;0.5145384999996168;001;FSLK99;2019_Dec_03_1451;iat_vr;60.03121623208889;
6;STADT;Gemacht;q;0;7;7;6;q;1;0.6979092000001401;001;FSLK99;2019_Dec_03_1451;iat_vr;60.03121623208889;
6;SCHÄDLICH;negativ;q;0;8;8;13;q;1;0.648465700000088;001;FSLK99;2019_Dec_03_1451;iat_vr;60.03121623208889;
6;LAMPE;Gemacht;q;0;9;9;9;q;1;0.5974886000003607;001;FSLK99;2019_Dec_03_1451;iat_vr;60.03121623208889;
6;TIER;Natur;p;0;10;10;3;p;1;0.6825057999994897;001;FSLK99;2019_Dec_03_1451;iat_vr;60.03121623208889;
6;SCHLECHT;negativ;q;0;11;11;11;q;1;0.6787572000030195;001;FSLK99;2019_Dec_03_1451;iat_vr;60.03121623208889;
6;BLUME;Natur;p;0;12;12;2;p;1;0.5821480000013253;001;FSLK99;2019_Dec_03_1451;iat_vr;60.03121623208889;
6;GUT;positiv;p;0;13;13;19;p;1;0.44941969999854336;001;FSLK99;2019_Dec_03_1451;iat_vr;60.03121623208889;
6;EINWANDFREI;positiv;p;0;14;14;16;p;1;0.794083299999329;001;FSLK99;2019_Dec_03_1451;iat_vr;60.03121623208889;
6;STEIN;Natur;p;0;15;15;4;p;1;0.8336615000007441;001;FSLK99;2019_Dec_03_1451;iat_vr;60.03121623208889;
6;SCHLIMM;negativ;q;0;16;16;10;q;1;0.796248700000433;001;FSLK99;2019_Dec_03_1451;iat_vr;60.03121623208889;
6;HERVORRAGEND;positiv;p;0;17;17;17;p;1;0.6960385000020324;001;FSLK99;2019_Dec_03_1451;iat_vr;60.03121623208889;
6;WASSER;Natur;p;0;18;18;1;p;1;0.5978175000018382;001;FSLK99;2019_Dec_03_1451;iat_vr;60.03121623208889;
6;KLEIDER;Gemacht;q;0;19;19;7;q;1;0.5816500000000815;001;FSLK99;2019_Dec_03_1451;iat_vr;60.03121623208889;
;;;;;;;;;;;001;FSLK99;2019_Dec_03_1451;iat_vr;60.03121623208889;
7;SCHWACH;negativ;q;0;0;0;14;q;1;1.6506798999980674;001;FSLK99;2019_Dec_03_1451;iat_vr;60.03121623208889;
7;LAMPE;Gemacht;q;0;1;1;9;q;1;0.6641865000019607;001;FSLK99;2019_Dec_03_1451;iat_vr;60.03121623208889;
7;NEGATIV;negativ;q;0;2;2;12;q;1;0.798414099997899;001;FSLK99;2019_Dec_03_1451;iat_vr;60.03121623208889;
7;GUT;positiv;p;0;3;3;19;p;1;0.6327521000021079;001;FSLK99;2019_Dec_03_1451;iat_vr;60.03121623208889;
7;KLEIDER;Gemacht;q;0;4;4;7;q;1;0.623945499999536;001;FSLK99;2019_Dec_03_1451;iat_vr;60.03121623208889;
7;SCHLIMM;negativ;q;0;5;5;10;q;1;0.7483863999987079;001;FSLK99;2019_Dec_03_1451;iat_vr;60.03121623208889;
7;STADT;Gemacht;q;0;6;6;6;q;1;0.7163182000003872;001;FSLK99;2019_Dec_03_1451;iat_vr;60.03121623208889;
7;STEIN;Natur;p;0;7;7;4;p;1;0.6640592999974615;001;FSLK99;2019_Dec_03_1451;iat_vr;60.03121623208889;
7;AUSGEZEICHNET;positiv;p;0;8;8;15;p;1;0.6021056999998109;001;FSLK99;2019_Dec_03_1451;iat_vr;60.03121623208889;
7;BAUM;Natur;p;0;9;9;0;p;1;0.5653071999986423;001;FSLK99;2019_Dec_03_1451;iat_vr;60.03121623208889;
7;WASSER;Natur;p;0;10;10;1;p;1;0.4467130000011821;001;FSLK99;2019_Dec_03_1451;iat_vr;60.03121623208889;
7;COMPUTER;Gemacht;q;0;11;11;8;q;1;0.7574588999996195;001;FSLK99;2019_Dec_03_1451;iat_vr;60.03121623208889;
7;BLUME;Natur;p;0;12;12;2;p;1;0.6640904999985651;001;FSLK99;2019_Dec_03_1451;iat_vr;60.03121623208889;
7;TIER;Natur;p;0;13;13;3;p;1;0.4473785999980464;001;FSLK99;2019_Dec_03_1451;iat_vr;60.03121623208889;
7;HERVORRAGEND;positiv;p;0;14;14;17;p;1;0.5781621999994968;001;FSLK99;2019_Dec_03_1451;iat_vr;60.03121623208889;
7;EINWANDFREI;positiv;p;0;15;15;16;p;1;0.5965347999990627;001;FSLK99;2019_Dec_03_1451;iat_vr;60.03121623208889;
7;SCHÄDLICH;negativ;q;0;16;16;13;q;1;0.6139676999991934;001;FSLK99;2019_Dec_03_1451;iat_vr;60.03121623208889;
7;GEBÄUDE;Gemacht;q;0;17;17;5;p;0;0.5781919000000926;001;FSLK99;2019_Dec_03_1451;iat_vr;60.03121623208889;
7;POSITIV;positiv;p;0;18;18;18;p;1;1.0144344999971509;001;FSLK99;2019_Dec_03_1451;iat_vr;60.03121623208889;
7;SCHLECHT;negativ;q;0;19;19;11;q;1;0.6977869000002102;001;FSLK99;2019_Dec_03_1451;iat_vr;60.03121623208889;
7;NEGATIV;negativ;q;1;0;20;12;q;1;0.7006025000009686;001;FSLK99;2019_Dec_03_1451;iat_vr;60.03121623208889;
7;BLUME;Natur;p;1;1;21;2;p;1;0.6987324000001536;001;FSLK99;2019_Dec_03_1451;iat_vr;60.03121623208889;
7;POSITIV;positiv;p;1;2;22;18;p;1;0.7477936000032059;001;FSLK99;2019_Dec_03_1451;iat_vr;60.03121623208889;
7;SCHLECHT;negativ;q;1;3;23;11;q;1;0.5625947999978962;001;FSLK99;2019_Dec_03_1451;iat_vr;60.03121623208889;
7;STADT;Gemacht;q;1;4;24;6;q;1;0.9822093000002496;001;FSLK99;2019_Dec_03_1451;iat_vr;60.03121623208889;
7;WASSER;Natur;p;1;5;25;1;p;1;0.8817519000003813;001;FSLK99;2019_Dec_03_1451;iat_vr;60.03121623208889;
7;GUT;positiv;p;1;6;26;19;p;1;0.6828660999999556;001;FSLK99;2019_Dec_03_1451;iat_vr;60.03121623208889;
7;TIER;Natur;p;1;7;27;3;p;1;0.7829950000013923;001;FSLK99;2019_Dec_03_1451;iat_vr;60.03121623208889;
7;HERVORRAGEND;positiv;p;1;8;28;17;p;1;0.7460929000008036;001;FSLK99;2019_Dec_03_1451;iat_vr;60.03121623208889;
7;GEBÄUDE;Gemacht;q;1;9;29;5;q;1;0.6470449999978882;001;FSLK99;2019_Dec_03_1451;iat_vr;60.03121623208889;
7;AUSGEZEICHNET;positiv;p;1;10;30;15;p;1;0.6979838999977801;001;FSLK99;2019_Dec_03_1451;iat_vr;60.03121623208889;
7;STEIN;Natur;p;1;11;31;4;p;1;0.8171156000025803;001;FSLK99;2019_Dec_03_1451;iat_vr;60.03121623208889;
7;KLEIDER;Gemacht;q;1;12;32;7;q;1;0.7970739000011235;001;FSLK99;2019_Dec_03_1451;iat_vr;60.03121623208889;
7;SCHÄDLICH;negativ;q;1;13;33;13;q;1;0.7181232999973872;001;FSLK99;2019_Dec_03_1451;iat_vr;60.03121623208889;
7;SCHLIMM;negativ;q;1;14;34;10;q;1;0.597388599999249;001;FSLK99;2019_Dec_03_1451;iat_vr;60.03121623208889;
7;EINWANDFREI;positiv;p;1;15;35;16;p;1;0.9946042000010493;001;FSLK99;2019_Dec_03_1451;iat_vr;60.03121623208889;
7;LAMPE;Gemacht;q;1;16;36;9;q;1;0.7133530999999493;001;FSLK99;2019_Dec_03_1451;iat_vr;60.03121623208889;
7;SCHWACH;negativ;q;1;17;37;14;q;1;0.9312920000011218;001;FSLK99;2019_Dec_03_1451;iat_vr;60.03121623208889;
7;BAUM;Natur;p;1;18;38;0;p;1;0.7822434000008798;001;FSLK99;2019_Dec_03_1451;iat_vr;60.03121623208889;
7;COMPUTER;Gemacht;q;1;19;39;8;q;1;0.6676929999994172;001;FSLK99;2019_Dec_03_1451;iat_vr;60.03121623208889;
;;;;;;;;;;;001;FSLK99;2019_Dec_03_1451;iat_vr;60.03121623208889;
