Block;Word;Category;CorrResp;trials.thisRepN;trials.thisTrialN;trials.thisN;trials.thisIndex;key_resp_2.keys;key_resp_2.corr;key_resp_2.rt;session;participant;date;expName;frameRate;
1;TIER;Natur;q;0;0;0;3;q;1;1.4438813000000437;001;FSLM98;2019_Dec_04_1133;iat_vr;59.90430885702956;
1;KLEIDER;Gemacht;p;0;1;1;7;p;1;0.6706466000000546;001;FSLM98;2019_Dec_04_1133;iat_vr;59.90430885702956;
1;COMPUTER;Gemacht;p;0;2;2;8;p;1;0.7615975999999591;001;FSLM98;2019_Dec_04_1133;iat_vr;59.90430885702956;
1;WASSER;Natur;q;0;3;3;1;q;1;0.7673224000000118;001;FSLM98;2019_Dec_04_1133;iat_vr;59.90430885702956;
1;BLUME;Natur;q;0;4;4;2;q;1;0.6665378999999803;001;FSLM98;2019_Dec_04_1133;iat_vr;59.90430885702956;
1;STEIN;Natur;q;0;5;5;4;q;1;0.8774164999999812;001;FSLM98;2019_Dec_04_1133;iat_vr;59.90430885702956;
1;GEBÄUDE;Gemacht;p;0;6;6;5;p;1;0.685487500000022;001;FSLM98;2019_Dec_04_1133;iat_vr;59.90430885702956;
1;STADT;Gemacht;p;0;7;7;6;p;1;0.7307526000000735;001;FSLM98;2019_Dec_04_1133;iat_vr;59.90430885702956;
1;BAUM;Natur;q;0;8;8;0;q;1;0.6642431000000215;001;FSLM98;2019_Dec_04_1133;iat_vr;59.90430885702956;
1;LAMPE;Gemacht;p;0;9;9;9;p;1;0.9645539000000554;001;FSLM98;2019_Dec_04_1133;iat_vr;59.90430885702956;
1;STEIN;Natur;q;1;0;10;4;q;1;0.6337828999999147;001;FSLM98;2019_Dec_04_1133;iat_vr;59.90430885702956;
1;BLUME;Natur;q;1;1;11;2;q;1;1.13329049999993;001;FSLM98;2019_Dec_04_1133;iat_vr;59.90430885702956;
1;STADT;Gemacht;p;1;2;12;6;p;1;0.6978949000000512;001;FSLM98;2019_Dec_04_1133;iat_vr;59.90430885702956;
1;COMPUTER;Gemacht;p;1;3;13;8;p;1;0.6961900000000014;001;FSLM98;2019_Dec_04_1133;iat_vr;59.90430885702956;
1;TIER;Natur;q;1;4;14;3;q;1;0.6316643999999769;001;FSLM98;2019_Dec_04_1133;iat_vr;59.90430885702956;
1;KLEIDER;Gemacht;p;1;5;15;7;p;1;0.5642321999999922;001;FSLM98;2019_Dec_04_1133;iat_vr;59.90430885702956;
1;GEBÄUDE;Gemacht;p;1;6;16;5;q;0;0.5976510999998936;001;FSLM98;2019_Dec_04_1133;iat_vr;59.90430885702956;
1;WASSER;Natur;q;1;7;17;1;q;1;0.7127802999999631;001;FSLM98;2019_Dec_04_1133;iat_vr;59.90430885702956;
1;LAMPE;Gemacht;p;1;8;18;9;p;1;1.185768199999984;001;FSLM98;2019_Dec_04_1133;iat_vr;59.90430885702956;
1;BAUM;Natur;q;1;9;19;0;q;1;0.7302562000000989;001;FSLM98;2019_Dec_04_1133;iat_vr;59.90430885702956;
;;;;;;;;;;;001;FSLM98;2019_Dec_04_1133;iat_vr;59.90430885702956;
2;AUSGEZEICHNET;positiv;p;0;0;0;5;p;1;1.0133266000000276;001;FSLM98;2019_Dec_04_1133;iat_vr;59.90430885702956;
2;POSITIV;positiv;p;0;1;1;8;p;1;0.6605011000000331;001;FSLM98;2019_Dec_04_1133;iat_vr;59.90430885702956;
2;HERVORRAGEND;positiv;p;0;2;2;7;p;1;0.64772210000001;001;FSLM98;2019_Dec_04_1133;iat_vr;59.90430885702956;
2;SCHWACH;negativ;q;0;3;3;4;q;1;0.8670691999999462;001;FSLM98;2019_Dec_04_1133;iat_vr;59.90430885702956;
2;GUT;positiv;p;0;4;4;9;p;1;0.6653850000000148;001;FSLM98;2019_Dec_04_1133;iat_vr;59.90430885702956;
2;SCHLECHT;negativ;q;0;5;5;1;q;1;0.5853759999999966;001;FSLM98;2019_Dec_04_1133;iat_vr;59.90430885702956;
2;SCHÄDLICH;negativ;q;0;6;6;3;q;1;0.6451577999999927;001;FSLM98;2019_Dec_04_1133;iat_vr;59.90430885702956;
2;SCHLIMM;negativ;q;0;7;7;0;q;1;0.5464863000000832;001;FSLM98;2019_Dec_04_1133;iat_vr;59.90430885702956;
2;EINWANDFREI;positiv;p;0;8;8;6;p;1;0.8942286000000195;001;FSLM98;2019_Dec_04_1133;iat_vr;59.90430885702956;
2;NEGATIV;negativ;q;0;9;9;2;q;1;0.5519632000000456;001;FSLM98;2019_Dec_04_1133;iat_vr;59.90430885702956;
2;AUSGEZEICHNET;positiv;p;1;0;10;5;p;1;0.6606272999999874;001;FSLM98;2019_Dec_04_1133;iat_vr;59.90430885702956;
2;SCHLECHT;negativ;q;1;1;11;1;q;1;0.6288541000000123;001;FSLM98;2019_Dec_04_1133;iat_vr;59.90430885702956;
2;NEGATIV;negativ;q;1;2;12;2;q;1;0.6953460999999379;001;FSLM98;2019_Dec_04_1133;iat_vr;59.90430885702956;
2;EINWANDFREI;positiv;p;1;3;13;6;p;1;0.6515384000000495;001;FSLM98;2019_Dec_04_1133;iat_vr;59.90430885702956;
2;HERVORRAGEND;positiv;p;1;4;14;7;p;1;0.696408799999972;001;FSLM98;2019_Dec_04_1133;iat_vr;59.90430885702956;
2;GUT;positiv;p;1;5;15;9;p;1;0.6983245999999781;001;FSLM98;2019_Dec_04_1133;iat_vr;59.90430885702956;
2;SCHLIMM;negativ;q;1;6;16;0;q;1;0.5973688999999922;001;FSLM98;2019_Dec_04_1133;iat_vr;59.90430885702956;
2;POSITIV;positiv;p;1;7;17;8;p;1;0.602410900000109;001;FSLM98;2019_Dec_04_1133;iat_vr;59.90430885702956;
2;SCHÄDLICH;negativ;q;1;8;18;3;q;1;0.6147532999999612;001;FSLM98;2019_Dec_04_1133;iat_vr;59.90430885702956;
2;SCHWACH;negativ;q;1;9;19;4;q;1;1.5472263999999996;001;FSLM98;2019_Dec_04_1133;iat_vr;59.90430885702956;
;;;;;;;;;;;001;FSLM98;2019_Dec_04_1133;iat_vr;59.90430885702956;
3;NEGATIV;negativ;q;0;0;0;2;q;1;1.783404399999995;001;FSLM98;2019_Dec_04_1133;iat_vr;59.90430885702956;
3;BLUME;Natur;q;0;1;1;12;q;1;0.9348152000000027;001;FSLM98;2019_Dec_04_1133;iat_vr;59.90430885702956;
3;KLEIDER;Gemacht;p;0;2;2;17;p;1;0.7788951999999654;001;FSLM98;2019_Dec_04_1133;iat_vr;59.90430885702956;
3;LAMPE;Gemacht;p;0;3;3;19;p;1;0.7296506999999792;001;FSLM98;2019_Dec_04_1133;iat_vr;59.90430885702956;
3;TIER;Natur;q;0;4;4;13;q;1;0.8954044999999269;001;FSLM98;2019_Dec_04_1133;iat_vr;59.90430885702956;
3;SCHLIMM;negativ;q;0;5;5;0;q;1;1.1019589999999653;001;FSLM98;2019_Dec_04_1133;iat_vr;59.90430885702956;
3;HERVORRAGEND;positiv;p;0;6;6;7;p;1;0.7630809999999428;001;FSLM98;2019_Dec_04_1133;iat_vr;59.90430885702956;
3;GUT;positiv;p;0;7;7;9;p;1;0.6665070999999898;001;FSLM98;2019_Dec_04_1133;iat_vr;59.90430885702956;
3;SCHÄDLICH;negativ;q;0;8;8;3;q;1;0.6662845999999263;001;FSLM98;2019_Dec_04_1133;iat_vr;59.90430885702956;
3;EINWANDFREI;positiv;p;0;9;9;6;p;1;1.364928700000064;001;FSLM98;2019_Dec_04_1133;iat_vr;59.90430885702956;
3;GEBÄUDE;Gemacht;p;0;10;10;15;p;1;0.6649891000000707;001;FSLM98;2019_Dec_04_1133;iat_vr;59.90430885702956;
3;WASSER;Natur;q;0;11;11;11;q;1;0.6962303999999904;001;FSLM98;2019_Dec_04_1133;iat_vr;59.90430885702956;
3;COMPUTER;Gemacht;p;0;12;12;18;p;1;0.831799100000012;001;FSLM98;2019_Dec_04_1133;iat_vr;59.90430885702956;
3;AUSGEZEICHNET;positiv;p;0;13;13;5;p;1;0.8093188000000282;001;FSLM98;2019_Dec_04_1133;iat_vr;59.90430885702956;
3;SCHLECHT;negativ;q;0;14;14;1;q;1;0.7844170999999278;001;FSLM98;2019_Dec_04_1133;iat_vr;59.90430885702956;
3;STADT;Gemacht;p;0;15;15;16;p;1;0.8463074000000006;001;FSLM98;2019_Dec_04_1133;iat_vr;59.90430885702956;
3;POSITIV;positiv;p;0;16;16;8;p;1;1.2314853999999968;001;FSLM98;2019_Dec_04_1133;iat_vr;59.90430885702956;
3;SCHWACH;negativ;q;0;17;17;4;q;1;0.5977744000000484;001;FSLM98;2019_Dec_04_1133;iat_vr;59.90430885702956;
3;STEIN;Natur;q;0;18;18;14;q;1;0.6458148000000392;001;FSLM98;2019_Dec_04_1133;iat_vr;59.90430885702956;
3;BAUM;Natur;q;0;19;19;10;q;1;0.8001946000000544;001;FSLM98;2019_Dec_04_1133;iat_vr;59.90430885702956;
;;;;;;;;;;;001;FSLM98;2019_Dec_04_1133;iat_vr;59.90430885702956;
4;STEIN;Natur;q;0;0;0;14;q;1;0.7194888999999876;001;FSLM98;2019_Dec_04_1133;iat_vr;59.90430885702956;
4;KLEIDER;Gemacht;p;0;1;1;17;p;1;0.7018865000000005;001;FSLM98;2019_Dec_04_1133;iat_vr;59.90430885702956;
4;LAMPE;Gemacht;p;0;2;2;19;p;1;2.0302480999999943;001;FSLM98;2019_Dec_04_1133;iat_vr;59.90430885702956;
4;HERVORRAGEND;positiv;p;0;3;3;7;p;1;0.9184753000000683;001;FSLM98;2019_Dec_04_1133;iat_vr;59.90430885702956;
4;WASSER;Natur;q;0;4;4;11;q;1;0.5641824000000497;001;FSLM98;2019_Dec_04_1133;iat_vr;59.90430885702956;
4;POSITIV;positiv;p;0;5;5;8;p;1;0.7620714999999336;001;FSLM98;2019_Dec_04_1133;iat_vr;59.90430885702956;
4;TIER;Natur;q;0;6;6;13;q;1;0.6005253000000721;001;FSLM98;2019_Dec_04_1133;iat_vr;59.90430885702956;
4;BAUM;Natur;q;0;7;7;10;q;1;0.6139769000000115;001;FSLM98;2019_Dec_04_1133;iat_vr;59.90430885702956;
4;GUT;positiv;p;0;8;8;9;p;1;0.6338034000000334;001;FSLM98;2019_Dec_04_1133;iat_vr;59.90430885702956;
4;SCHÄDLICH;negativ;q;0;9;9;3;q;1;0.5628119000000424;001;FSLM98;2019_Dec_04_1133;iat_vr;59.90430885702956;
4;GEBÄUDE;Gemacht;p;0;10;10;15;p;1;0.6840750000000071;001;FSLM98;2019_Dec_04_1133;iat_vr;59.90430885702956;
4;AUSGEZEICHNET;positiv;p;0;11;11;5;p;1;0.666780299999914;001;FSLM98;2019_Dec_04_1133;iat_vr;59.90430885702956;
4;SCHWACH;negativ;q;0;12;12;4;q;1;0.7004904000000352;001;FSLM98;2019_Dec_04_1133;iat_vr;59.90430885702956;
4;EINWANDFREI;positiv;p;0;13;13;6;p;1;0.9670448000000533;001;FSLM98;2019_Dec_04_1133;iat_vr;59.90430885702956;
4;COMPUTER;Gemacht;p;0;14;14;18;p;1;0.8334929999999758;001;FSLM98;2019_Dec_04_1133;iat_vr;59.90430885702956;
4;STADT;Gemacht;p;0;15;15;16;p;1;0.7006606999999576;001;FSLM98;2019_Dec_04_1133;iat_vr;59.90430885702956;
4;BLUME;Natur;q;0;16;16;12;q;1;0.7002058000000488;001;FSLM98;2019_Dec_04_1133;iat_vr;59.90430885702956;
4;SCHLECHT;negativ;q;0;17;17;1;q;1;0.7668583999999328;001;FSLM98;2019_Dec_04_1133;iat_vr;59.90430885702956;
4;NEGATIV;negativ;q;0;18;18;2;q;1;0.6500718000000916;001;FSLM98;2019_Dec_04_1133;iat_vr;59.90430885702956;
4;SCHLIMM;negativ;q;0;19;19;0;q;1;0.5837230999999292;001;FSLM98;2019_Dec_04_1133;iat_vr;59.90430885702956;
4;COMPUTER;Gemacht;p;1;0;20;18;p;1;1.366812100000061;001;FSLM98;2019_Dec_04_1133;iat_vr;59.90430885702956;
4;SCHLECHT;negativ;q;1;1;21;1;p;0;0.6005938999999216;001;FSLM98;2019_Dec_04_1133;iat_vr;59.90430885702956;
4;NEGATIV;negativ;q;1;2;22;2;q;1;0.8171823000000131;001;FSLM98;2019_Dec_04_1133;iat_vr;59.90430885702956;
4;BLUME;Natur;q;1;3;23;12;q;1;0.8671185000000605;001;FSLM98;2019_Dec_04_1133;iat_vr;59.90430885702956;
4;LAMPE;Gemacht;p;1;4;24;19;p;1;0.8168590000000222;001;FSLM98;2019_Dec_04_1133;iat_vr;59.90430885702956;
4;WASSER;Natur;q;1;5;25;11;q;1;0.8837237999999843;001;FSLM98;2019_Dec_04_1133;iat_vr;59.90430885702956;
4;KLEIDER;Gemacht;p;1;6;26;17;p;1;1.2171857999999247;001;FSLM98;2019_Dec_04_1133;iat_vr;59.90430885702956;
4;STEIN;Natur;q;1;7;27;14;q;1;0.7002026000000114;001;FSLM98;2019_Dec_04_1133;iat_vr;59.90430885702956;
4;EINWANDFREI;positiv;p;1;8;28;6;p;1;0.7669971999999916;001;FSLM98;2019_Dec_04_1133;iat_vr;59.90430885702956;
4;BAUM;Natur;q;1;9;29;10;q;1;0.6336447999999564;001;FSLM98;2019_Dec_04_1133;iat_vr;59.90430885702956;
4;POSITIV;positiv;p;1;10;30;8;p;1;0.6668754999999464;001;FSLM98;2019_Dec_04_1133;iat_vr;59.90430885702956;
4;SCHÄDLICH;negativ;q;1;11;31;3;q;1;0.6170270000000073;001;FSLM98;2019_Dec_04_1133;iat_vr;59.90430885702956;
4;GEBÄUDE;Gemacht;p;1;12;32;15;p;1;0.9665312000000768;001;FSLM98;2019_Dec_04_1133;iat_vr;59.90430885702956;
4;AUSGEZEICHNET;positiv;p;1;13;33;5;p;1;0.9006203999999798;001;FSLM98;2019_Dec_04_1133;iat_vr;59.90430885702956;
4;HERVORRAGEND;positiv;p;1;14;34;7;p;1;0.9004353000000265;001;FSLM98;2019_Dec_04_1133;iat_vr;59.90430885702956;
4;SCHWACH;negativ;q;1;15;35;4;q;1;0.8502522999999655;001;FSLM98;2019_Dec_04_1133;iat_vr;59.90430885702956;
4;TIER;Natur;q;1;16;36;13;q;1;1.3690197000000808;001;FSLM98;2019_Dec_04_1133;iat_vr;59.90430885702956;
4;SCHLIMM;negativ;q;1;17;37;0;q;1;0.6163801000000149;001;FSLM98;2019_Dec_04_1133;iat_vr;59.90430885702956;
4;GUT;positiv;p;1;18;38;9;p;1;0.7353246000000127;001;FSLM98;2019_Dec_04_1133;iat_vr;59.90430885702956;
4;STADT;Gemacht;p;1;19;39;16;p;1;0.6835942999999816;001;FSLM98;2019_Dec_04_1133;iat_vr;59.90430885702956;
;;;;;;;;;;;001;FSLM98;2019_Dec_04_1133;iat_vr;59.90430885702956;
5;LAMPE;Gemacht;q;0;0;0;9;q;1;0.861886600000048;001;FSLM98;2019_Dec_04_1133;iat_vr;59.90430885702956;
5;WASSER;Natur;p;0;1;1;1;p;1;0.6833981999999423;001;FSLM98;2019_Dec_04_1133;iat_vr;59.90430885702956;
5;STEIN;Natur;p;0;2;2;4;p;1;0.780482300000017;001;FSLM98;2019_Dec_04_1133;iat_vr;59.90430885702956;
5;BAUM;Natur;p;0;3;3;0;p;1;0.7859245000000783;001;FSLM98;2019_Dec_04_1133;iat_vr;59.90430885702956;
5;GEBÄUDE;Gemacht;q;0;4;4;5;q;1;0.7939204000000473;001;FSLM98;2019_Dec_04_1133;iat_vr;59.90430885702956;
5;KLEIDER;Gemacht;q;0;5;5;7;q;1;1.2195222999999942;001;FSLM98;2019_Dec_04_1133;iat_vr;59.90430885702956;
5;TIER;Natur;p;0;6;6;3;p;1;0.6858757999999625;001;FSLM98;2019_Dec_04_1133;iat_vr;59.90430885702956;
5;STADT;Gemacht;q;0;7;7;6;q;1;0.7811452999999347;001;FSLM98;2019_Dec_04_1133;iat_vr;59.90430885702956;
5;COMPUTER;Gemacht;q;0;8;8;8;q;1;0.7448854000000438;001;FSLM98;2019_Dec_04_1133;iat_vr;59.90430885702956;
5;BLUME;Natur;p;0;9;9;2;p;1;0.8964680999999928;001;FSLM98;2019_Dec_04_1133;iat_vr;59.90430885702956;
5;BAUM;Natur;p;1;0;10;0;p;1;0.8011477000000014;001;FSLM98;2019_Dec_04_1133;iat_vr;59.90430885702956;
5;TIER;Natur;p;1;1;11;3;p;1;0.7634654999999384;001;FSLM98;2019_Dec_04_1133;iat_vr;59.90430885702956;
5;GEBÄUDE;Gemacht;q;1;2;12;5;q;1;0.6530392999999322;001;FSLM98;2019_Dec_04_1133;iat_vr;59.90430885702956;
5;STADT;Gemacht;q;1;3;13;6;q;1;0.9842669999999316;001;FSLM98;2019_Dec_04_1133;iat_vr;59.90430885702956;
5;LAMPE;Gemacht;q;1;4;14;9;q;1;0.7014317999999093;001;FSLM98;2019_Dec_04_1133;iat_vr;59.90430885702956;
5;BLUME;Natur;p;1;5;15;2;p;1;0.6778782000000092;001;FSLM98;2019_Dec_04_1133;iat_vr;59.90430885702956;
5;KLEIDER;Gemacht;q;1;6;16;7;q;1;0.9178886999999349;001;FSLM98;2019_Dec_04_1133;iat_vr;59.90430885702956;
5;STEIN;Natur;p;1;7;17;4;p;1;0.9193096999999852;001;FSLM98;2019_Dec_04_1133;iat_vr;59.90430885702956;
5;COMPUTER;Gemacht;q;1;8;18;8;q;1;0.7977261999999428;001;FSLM98;2019_Dec_04_1133;iat_vr;59.90430885702956;
5;WASSER;Natur;p;1;9;19;1;p;1;0.6987510999999813;001;FSLM98;2019_Dec_04_1133;iat_vr;59.90430885702956;
;;;;;;;;;;;001;FSLM98;2019_Dec_04_1133;iat_vr;59.90430885702956;
6;COMPUTER;Gemacht;q;0;0;0;8;q;1;1.835280799999964;001;FSLM98;2019_Dec_04_1133;iat_vr;59.90430885702956;
6;SCHLECHT;negativ;q;0;1;1;11;q;1;0.6626232999999502;001;FSLM98;2019_Dec_04_1133;iat_vr;59.90430885702956;
6;WASSER;Natur;p;0;2;2;1;p;1;0.5622266999998828;001;FSLM98;2019_Dec_04_1133;iat_vr;59.90430885702956;
6;KLEIDER;Gemacht;q;0;3;3;7;q;1;0.7859074000000419;001;FSLM98;2019_Dec_04_1133;iat_vr;59.90430885702956;
6;HERVORRAGEND;positiv;p;0;4;4;17;p;1;1.0114941000001636;001;FSLM98;2019_Dec_04_1133;iat_vr;59.90430885702956;
6;STEIN;Natur;p;0;5;5;4;p;1;0.8355478000000858;001;FSLM98;2019_Dec_04_1133;iat_vr;59.90430885702956;
6;TIER;Natur;p;0;6;6;3;p;1;0.6018433000001551;001;FSLM98;2019_Dec_04_1133;iat_vr;59.90430885702956;
6;BLUME;Natur;p;0;7;7;2;p;1;0.6650685999998132;001;FSLM98;2019_Dec_04_1133;iat_vr;59.90430885702956;
6;BAUM;Natur;p;0;8;8;0;p;1;0.5802298999999493;001;FSLM98;2019_Dec_04_1133;iat_vr;59.90430885702956;
6;POSITIV;positiv;p;0;9;9;18;p;1;0.5289680999999291;001;FSLM98;2019_Dec_04_1133;iat_vr;59.90430885702956;
6;GUT;positiv;p;0;10;10;19;p;1;0.5154038000000583;001;FSLM98;2019_Dec_04_1133;iat_vr;59.90430885702956;
6;STADT;Gemacht;q;0;11;11;6;q;1;0.7313355999999658;001;FSLM98;2019_Dec_04_1133;iat_vr;59.90430885702956;
6;EINWANDFREI;positiv;p;0;12;12;16;p;1;0.9622077000001354;001;FSLM98;2019_Dec_04_1133;iat_vr;59.90430885702956;
6;SCHWACH;negativ;q;0;13;13;14;q;1;0.8792770000000019;001;FSLM98;2019_Dec_04_1133;iat_vr;59.90430885702956;
6;GEBÄUDE;Gemacht;q;0;14;14;5;q;1;0.7506544000000304;001;FSLM98;2019_Dec_04_1133;iat_vr;59.90430885702956;
6;NEGATIV;negativ;q;0;15;15;12;q;1;1.851157300000068;001;FSLM98;2019_Dec_04_1133;iat_vr;59.90430885702956;
6;AUSGEZEICHNET;positiv;p;0;16;16;15;p;1;0.6058995000000778;001;FSLM98;2019_Dec_04_1133;iat_vr;59.90430885702956;
6;SCHÄDLICH;negativ;q;0;17;17;13;q;1;0.9465164000000641;001;FSLM98;2019_Dec_04_1133;iat_vr;59.90430885702956;
6;LAMPE;Gemacht;q;0;18;18;9;p;0;0.7979907000001276;001;FSLM98;2019_Dec_04_1133;iat_vr;59.90430885702956;
6;SCHLIMM;negativ;q;0;19;19;10;q;1;1.663404200000059;001;FSLM98;2019_Dec_04_1133;iat_vr;59.90430885702956;
;;;;;;;;;;;001;FSLM98;2019_Dec_04_1133;iat_vr;59.90430885702956;
7;LAMPE;Gemacht;q;0;0;0;9;q;1;0.8123591000000943;001;FSLM98;2019_Dec_04_1133;iat_vr;59.90430885702956;
7;BLUME;Natur;p;0;1;1;2;p;1;0.7350443999998788;001;FSLM98;2019_Dec_04_1133;iat_vr;59.90430885702956;
7;AUSGEZEICHNET;positiv;p;0;2;2;15;p;1;1.1452090999998745;001;FSLM98;2019_Dec_04_1133;iat_vr;59.90430885702956;
7;GUT;positiv;p;0;3;3;19;p;1;0.5829552000000149;001;FSLM98;2019_Dec_04_1133;iat_vr;59.90430885702956;
7;TIER;Natur;p;0;4;4;3;p;1;1.4791726000000835;001;FSLM98;2019_Dec_04_1133;iat_vr;59.90430885702956;
7;WASSER;Natur;p;0;5;5;1;p;1;0.6678523999999015;001;FSLM98;2019_Dec_04_1133;iat_vr;59.90430885702956;
7;SCHLECHT;negativ;q;0;6;6;11;q;1;0.7850788999999168;001;FSLM98;2019_Dec_04_1133;iat_vr;59.90430885702956;
7;POSITIV;positiv;p;0;7;7;18;p;1;0.7130509999999504;001;FSLM98;2019_Dec_04_1133;iat_vr;59.90430885702956;
7;HERVORRAGEND;positiv;p;0;8;8;17;p;1;0.8761217999999644;001;FSLM98;2019_Dec_04_1133;iat_vr;59.90430885702956;
7;GEBÄUDE;Gemacht;q;0;9;9;5;q;1;0.7500484999998207;001;FSLM98;2019_Dec_04_1133;iat_vr;59.90430885702956;
7;SCHLIMM;negativ;q;0;10;10;10;q;1;0.5790094999999837;001;FSLM98;2019_Dec_04_1133;iat_vr;59.90430885702956;
7;SCHWACH;negativ;q;0;11;11;14;q;1;0.6525294999999005;001;FSLM98;2019_Dec_04_1133;iat_vr;59.90430885702956;
7;STADT;Gemacht;q;0;12;12;6;q;1;0.6645872000001418;001;FSLM98;2019_Dec_04_1133;iat_vr;59.90430885702956;
7;SCHÄDLICH;negativ;q;0;13;13;13;q;1;0.6803653999998005;001;FSLM98;2019_Dec_04_1133;iat_vr;59.90430885702956;
7;STEIN;Natur;p;0;14;14;4;p;1;0.6815214999999171;001;FSLM98;2019_Dec_04_1133;iat_vr;59.90430885702956;
7;BAUM;Natur;p;0;15;15;0;p;1;0.485485300000164;001;FSLM98;2019_Dec_04_1133;iat_vr;59.90430885702956;
7;EINWANDFREI;positiv;p;0;16;16;16;p;1;0.7626236999999492;001;FSLM98;2019_Dec_04_1133;iat_vr;59.90430885702956;
7;NEGATIV;negativ;q;0;17;17;12;q;1;0.6935880000000907;001;FSLM98;2019_Dec_04_1133;iat_vr;59.90430885702956;
7;COMPUTER;Gemacht;q;0;18;18;8;q;1;0.6313520999999582;001;FSLM98;2019_Dec_04_1133;iat_vr;59.90430885702956;
7;KLEIDER;Gemacht;q;0;19;19;7;q;1;0.6806830999998965;001;FSLM98;2019_Dec_04_1133;iat_vr;59.90430885702956;
7;GEBÄUDE;Gemacht;q;1;0;20;5;q;1;0.5645585999998275;001;FSLM98;2019_Dec_04_1133;iat_vr;59.90430885702956;
7;EINWANDFREI;positiv;p;1;1;21;16;p;1;0.6620288999999957;001;FSLM98;2019_Dec_04_1133;iat_vr;59.90430885702956;
7;WASSER;Natur;p;1;2;22;1;p;1;0.7338571999998749;001;FSLM98;2019_Dec_04_1133;iat_vr;59.90430885702956;
7;BAUM;Natur;p;1;3;23;0;p;1;0.7520374999999149;001;FSLM98;2019_Dec_04_1133;iat_vr;59.90430885702956;
7;AUSGEZEICHNET;positiv;p;1;4;24;15;p;1;0.760657300000048;001;FSLM98;2019_Dec_04_1133;iat_vr;59.90430885702956;
7;COMPUTER;Gemacht;q;1;5;25;8;q;1;0.7286368000000039;001;FSLM98;2019_Dec_04_1133;iat_vr;59.90430885702956;
7;STEIN;Natur;p;1;6;26;4;p;1;0.7344196999999895;001;FSLM98;2019_Dec_04_1133;iat_vr;59.90430885702956;
7;SCHWACH;negativ;q;1;7;27;14;p;0;0.8474295000000893;001;FSLM98;2019_Dec_04_1133;iat_vr;59.90430885702956;
7;LAMPE;Gemacht;q;1;8;28;9;q;1;1.0657752999998138;001;FSLM98;2019_Dec_04_1133;iat_vr;59.90430885702956;
7;TIER;Natur;p;1;9;29;3;p;1;0.7159540000000106;001;FSLM98;2019_Dec_04_1133;iat_vr;59.90430885702956;
7;NEGATIV;negativ;q;1;10;30;12;q;1;1.2849140999999236;001;FSLM98;2019_Dec_04_1133;iat_vr;59.90430885702956;
7;SCHLECHT;negativ;q;1;11;31;11;q;1;0.5299763000000439;001;FSLM98;2019_Dec_04_1133;iat_vr;59.90430885702956;
7;STADT;Gemacht;q;1;12;32;6;q;1;0.5515539000000445;001;FSLM98;2019_Dec_04_1133;iat_vr;59.90430885702956;
7;SCHLIMM;negativ;q;1;13;33;10;q;1;0.6312967999999728;001;FSLM98;2019_Dec_04_1133;iat_vr;59.90430885702956;
7;SCHÄDLICH;negativ;q;1;14;34;13;q;1;0.4838165000001027;001;FSLM98;2019_Dec_04_1133;iat_vr;59.90430885702956;
7;POSITIV;positiv;p;1;15;35;18;p;1;0.5834267000000182;001;FSLM98;2019_Dec_04_1133;iat_vr;59.90430885702956;
7;HERVORRAGEND;positiv;p;1;16;36;17;p;1;0.6523478999999952;001;FSLM98;2019_Dec_04_1133;iat_vr;59.90430885702956;
7;BLUME;Natur;p;1;17;37;2;p;1;0.46721849999994447;001;FSLM98;2019_Dec_04_1133;iat_vr;59.90430885702956;
7;KLEIDER;Gemacht;q;1;18;38;7;q;1;0.6337702000000718;001;FSLM98;2019_Dec_04_1133;iat_vr;59.90430885702956;
7;GUT;positiv;p;1;19;39;19;p;1;0.5492733999999473;001;FSLM98;2019_Dec_04_1133;iat_vr;59.90430885702956;
;;;;;;;;;;;001;FSLM98;2019_Dec_04_1133;iat_vr;59.90430885702956;
