Block;Word;Category;CorrResp;trials.thisRepN;trials.thisTrialN;trials.thisN;trials.thisIndex;key_resp_2.keys;key_resp_2.corr;key_resp_2.rt;session;participant;date;expName;frameRate;
1;COMPUTER;Gemacht;p;0;0;0;8;p;1;1.5838848999992479;001;FSMM90;2019_Dec_19_1343;iat_vr;60.1649964863635;
1;LAMPE;Gemacht;p;0;1;1;9;p;1;0.7780804000012722;001;FSMM90;2019_Dec_19_1343;iat_vr;60.1649964863635;
1;BLUME;Natur;q;0;2;2;2;q;1;0.6625542000001587;001;FSMM90;2019_Dec_19_1343;iat_vr;60.1649964863635;
1;TIER;Natur;q;0;3;3;3;q;1;0.6627613000000565;001;FSMM90;2019_Dec_19_1343;iat_vr;60.1649964863635;
1;GEBÄUDE;Gemacht;p;0;4;4;5;p;1;0.6555105999996158;001;FSMM90;2019_Dec_19_1343;iat_vr;60.1649964863635;
1;STADT;Gemacht;p;0;5;5;6;p;1;0.675989399998798;001;FSMM90;2019_Dec_19_1343;iat_vr;60.1649964863635;
1;WASSER;Natur;q;0;6;6;1;q;1;0.6933759999992617;001;FSMM90;2019_Dec_19_1343;iat_vr;60.1649964863635;
1;STEIN;Natur;q;0;7;7;4;q;1;0.6799569000013435;001;FSMM90;2019_Dec_19_1343;iat_vr;60.1649964863635;
1;BAUM;Natur;q;0;8;8;0;q;1;0.5968244000014238;001;FSMM90;2019_Dec_19_1343;iat_vr;60.1649964863635;
1;KLEIDER;Gemacht;p;0;9;9;7;p;1;0.6278235000008863;001;FSMM90;2019_Dec_19_1343;iat_vr;60.1649964863635;
1;STEIN;Natur;q;1;0;10;4;q;1;0.6483475999993971;001;FSMM90;2019_Dec_19_1343;iat_vr;60.1649964863635;
1;GEBÄUDE;Gemacht;p;1;1;11;5;p;1;0.6289299000000028;001;FSMM90;2019_Dec_19_1343;iat_vr;60.1649964863635;
1;COMPUTER;Gemacht;p;1;2;12;8;p;1;0.6303510000016104;001;FSMM90;2019_Dec_19_1343;iat_vr;60.1649964863635;
1;KLEIDER;Gemacht;p;1;3;13;7;p;1;0.8123878000005789;001;FSMM90;2019_Dec_19_1343;iat_vr;60.1649964863635;
1;BLUME;Natur;q;1;4;14;2;q;1;0.597662100000889;001;FSMM90;2019_Dec_19_1343;iat_vr;60.1649964863635;
1;WASSER;Natur;q;1;5;15;1;q;1;0.6851016999989952;001;FSMM90;2019_Dec_19_1343;iat_vr;60.1649964863635;
1;LAMPE;Gemacht;p;1;6;16;9;p;1;0.5821376999992935;001;FSMM90;2019_Dec_19_1343;iat_vr;60.1649964863635;
1;STADT;Gemacht;p;1;7;17;6;p;1;0.6804265999999188;001;FSMM90;2019_Dec_19_1343;iat_vr;60.1649964863635;
1;BAUM;Natur;q;1;8;18;0;q;1;0.6466116000010516;001;FSMM90;2019_Dec_19_1343;iat_vr;60.1649964863635;
1;TIER;Natur;q;1;9;19;3;q;1;0.6817218999985926;001;FSMM90;2019_Dec_19_1343;iat_vr;60.1649964863635;
;;;;;;;;;;;001;FSMM90;2019_Dec_19_1343;iat_vr;60.1649964863635;
2;SCHWACH;negativ;q;0;0;0;4;q;1;3.1743710999999166;001;FSMM90;2019_Dec_19_1343;iat_vr;60.1649964863635;
2;EINWANDFREI;positiv;p;0;1;1;6;p;1;0.9924253999997745;001;FSMM90;2019_Dec_19_1343;iat_vr;60.1649964863635;
2;SCHÄDLICH;negativ;q;0;2;2;3;q;1;0.7280510999989929;001;FSMM90;2019_Dec_19_1343;iat_vr;60.1649964863635;
2;SCHLECHT;negativ;q;0;3;3;1;q;1;0.6623573999986547;001;FSMM90;2019_Dec_19_1343;iat_vr;60.1649964863635;
2;SCHLIMM;negativ;q;0;4;4;0;q;1;0.6946317000001727;001;FSMM90;2019_Dec_19_1343;iat_vr;60.1649964863635;
2;POSITIV;positiv;p;0;5;5;8;p;1;0.6413842999991175;001;FSMM90;2019_Dec_19_1343;iat_vr;60.1649964863635;
2;HERVORRAGEND;positiv;p;0;6;6;7;p;1;0.6586338999986765;001;FSMM90;2019_Dec_19_1343;iat_vr;60.1649964863635;
2;NEGATIV;negativ;q;0;7;7;2;q;1;0.7461844000008568;001;FSMM90;2019_Dec_19_1343;iat_vr;60.1649964863635;
2;AUSGEZEICHNET;positiv;p;0;8;8;5;p;1;0.691635999999562;001;FSMM90;2019_Dec_19_1343;iat_vr;60.1649964863635;
2;GUT;positiv;p;0;9;9;9;p;1;0.6978940999997576;001;FSMM90;2019_Dec_19_1343;iat_vr;60.1649964863635;
2;EINWANDFREI;positiv;p;1;0;10;6;p;1;0.6802095000002737;001;FSMM90;2019_Dec_19_1343;iat_vr;60.1649964863635;
2;POSITIV;positiv;p;1;1;11;8;p;1;0.6616467000003468;001;FSMM90;2019_Dec_19_1343;iat_vr;60.1649964863635;
2;SCHLIMM;negativ;q;1;2;12;0;q;1;0.6125260999997408;001;FSMM90;2019_Dec_19_1343;iat_vr;60.1649964863635;
2;SCHLECHT;negativ;q;1;3;13;1;q;1;0.6408905000007508;001;FSMM90;2019_Dec_19_1343;iat_vr;60.1649964863635;
2;HERVORRAGEND;positiv;p;1;4;14;7;p;1;0.6123594999990019;001;FSMM90;2019_Dec_19_1343;iat_vr;60.1649964863635;
2;GUT;positiv;p;1;5;15;9;p;1;0.69934160000048;001;FSMM90;2019_Dec_19_1343;iat_vr;60.1649964863635;
2;SCHWACH;negativ;q;1;6;16;4;q;1;0.6145800000012969;001;FSMM90;2019_Dec_19_1343;iat_vr;60.1649964863635;
2;AUSGEZEICHNET;positiv;p;1;7;17;5;p;1;0.61091850000048;001;FSMM90;2019_Dec_19_1343;iat_vr;60.1649964863635;
2;NEGATIV;negativ;q;1;8;18;2;q;1;0.5969253000002936;001;FSMM90;2019_Dec_19_1343;iat_vr;60.1649964863635;
2;SCHÄDLICH;negativ;q;1;9;19;3;q;1;0.664166300000943;001;FSMM90;2019_Dec_19_1343;iat_vr;60.1649964863635;
;;;;;;;;;;;001;FSMM90;2019_Dec_19_1343;iat_vr;60.1649964863635;
3;AUSGEZEICHNET;positiv;p;0;0;0;5;p;1;1.3183489999992162;001;FSMM90;2019_Dec_19_1343;iat_vr;60.1649964863635;
3;BLUME;Natur;q;0;1;1;12;q;1;0.7483073999992484;001;FSMM90;2019_Dec_19_1343;iat_vr;60.1649964863635;
3;SCHÄDLICH;negativ;q;0;2;2;3;q;1;0.7306287000010343;001;FSMM90;2019_Dec_19_1343;iat_vr;60.1649964863635;
3;SCHLIMM;negativ;q;0;3;3;0;q;1;0.7646875999998883;001;FSMM90;2019_Dec_19_1343;iat_vr;60.1649964863635;
3;COMPUTER;Gemacht;p;0;4;4;18;p;1;0.6814312999995309;001;FSMM90;2019_Dec_19_1343;iat_vr;60.1649964863635;
3;BAUM;Natur;q;0;5;5;10;q;1;0.6987513999993098;001;FSMM90;2019_Dec_19_1343;iat_vr;60.1649964863635;
3;HERVORRAGEND;positiv;p;0;6;6;7;p;1;0.6916531000006216;001;FSMM90;2019_Dec_19_1343;iat_vr;60.1649964863635;
3;WASSER;Natur;q;0;7;7;11;q;1;0.69875409999986;001;FSMM90;2019_Dec_19_1343;iat_vr;60.1649964863635;
3;SCHWACH;negativ;q;0;8;8;4;q;1;0.8802099999993516;001;FSMM90;2019_Dec_19_1343;iat_vr;60.1649964863635;
3;NEGATIV;negativ;q;0;9;9;2;q;1;0.6620124000000942;001;FSMM90;2019_Dec_19_1343;iat_vr;60.1649964863635;
3;STADT;Gemacht;p;0;10;10;16;p;1;0.6188695000000735;001;FSMM90;2019_Dec_19_1343;iat_vr;60.1649964863635;
3;POSITIV;positiv;p;0;11;11;8;p;1;0.6139060999994399;001;FSMM90;2019_Dec_19_1343;iat_vr;60.1649964863635;
3;SCHLECHT;negativ;q;0;12;12;1;q;1;0.6814302000002499;001;FSMM90;2019_Dec_19_1343;iat_vr;60.1649964863635;
3;TIER;Natur;q;0;13;13;13;q;1;0.6469102000010025;001;FSMM90;2019_Dec_19_1343;iat_vr;60.1649964863635;
3;LAMPE;Gemacht;p;0;14;14;19;p;1;0.5821020000003045;001;FSMM90;2019_Dec_19_1343;iat_vr;60.1649964863635;
3;EINWANDFREI;positiv;p;0;15;15;6;p;1;0.5966548999986117;001;FSMM90;2019_Dec_19_1343;iat_vr;60.1649964863635;
3;STEIN;Natur;q;0;16;16;14;q;1;0.6484041000003344;001;FSMM90;2019_Dec_19_1343;iat_vr;60.1649964863635;
3;GUT;positiv;p;0;17;17;9;p;1;0.5828359000006458;001;FSMM90;2019_Dec_19_1343;iat_vr;60.1649964863635;
3;KLEIDER;Gemacht;p;0;18;18;17;p;1;0.7871125999990909;001;FSMM90;2019_Dec_19_1343;iat_vr;60.1649964863635;
3;GEBÄUDE;Gemacht;p;0;19;19;15;p;1;0.6305671999998594;001;FSMM90;2019_Dec_19_1343;iat_vr;60.1649964863635;
;;;;;;;;;;;001;FSMM90;2019_Dec_19_1343;iat_vr;60.1649964863635;
4;KLEIDER;Gemacht;p;0;0;0;17;p;1;0.8308319999996456;001;FSMM90;2019_Dec_19_1343;iat_vr;60.1649964863635;
4;WASSER;Natur;q;0;1;1;11;q;1;0.6153725999993185;001;FSMM90;2019_Dec_19_1343;iat_vr;60.1649964863635;
4;TIER;Natur;q;0;2;2;13;q;1;0.5815504000001965;001;FSMM90;2019_Dec_19_1343;iat_vr;60.1649964863635;
4;BAUM;Natur;q;0;3;3;10;q;1;0.5806910999999673;001;FSMM90;2019_Dec_19_1343;iat_vr;60.1649964863635;
4;COMPUTER;Gemacht;p;0;4;4;18;p;1;0.5791929999995773;001;FSMM90;2019_Dec_19_1343;iat_vr;60.1649964863635;
4;BLUME;Natur;q;0;5;5;12;q;1;0.6151005000010628;001;FSMM90;2019_Dec_19_1343;iat_vr;60.1649964863635;
4;SCHLIMM;negativ;q;0;6;6;0;q;1;0.6357819999993808;001;FSMM90;2019_Dec_19_1343;iat_vr;60.1649964863635;
4;EINWANDFREI;positiv;p;0;7;7;6;p;1;0.6782179000001634;001;FSMM90;2019_Dec_19_1343;iat_vr;60.1649964863635;
4;GUT;positiv;p;0;8;8;9;p;1;0.6482956999989256;001;FSMM90;2019_Dec_19_1343;iat_vr;60.1649964863635;
4;SCHÄDLICH;negativ;q;0;9;9;3;q;1;0.5973654999997962;001;FSMM90;2019_Dec_19_1343;iat_vr;60.1649964863635;
4;SCHLECHT;negativ;q;0;10;10;1;q;1;0.6171431000002485;001;FSMM90;2019_Dec_19_1343;iat_vr;60.1649964863635;
4;NEGATIV;negativ;q;0;11;11;2;q;1;0.563048299998627;001;FSMM90;2019_Dec_19_1343;iat_vr;60.1649964863635;
4;LAMPE;Gemacht;p;0;12;12;19;p;1;0.5676289000002726;001;FSMM90;2019_Dec_19_1343;iat_vr;60.1649964863635;
4;POSITIV;positiv;p;0;13;13;8;p;1;0.5855836999999156;001;FSMM90;2019_Dec_19_1343;iat_vr;60.1649964863635;
4;SCHWACH;negativ;q;0;14;14;4;q;1;0.6141558999988774;001;FSMM90;2019_Dec_19_1343;iat_vr;60.1649964863635;
4;STADT;Gemacht;p;0;15;15;16;p;1;0.582061099999919;001;FSMM90;2019_Dec_19_1343;iat_vr;60.1649964863635;
4;STEIN;Natur;q;0;16;16;14;q;1;0.6149329000018042;001;FSMM90;2019_Dec_19_1343;iat_vr;60.1649964863635;
4;GEBÄUDE;Gemacht;p;0;17;17;15;p;1;0.6138147999990906;001;FSMM90;2019_Dec_19_1343;iat_vr;60.1649964863635;
4;HERVORRAGEND;positiv;p;0;18;18;7;p;1;0.5956550999999308;001;FSMM90;2019_Dec_19_1343;iat_vr;60.1649964863635;
4;AUSGEZEICHNET;positiv;p;0;19;19;5;p;1;0.6107730000003357;001;FSMM90;2019_Dec_19_1343;iat_vr;60.1649964863635;
4;NEGATIV;negativ;q;1;0;20;2;q;1;0.5848556000000826;001;FSMM90;2019_Dec_19_1343;iat_vr;60.1649964863635;
4;GEBÄUDE;Gemacht;p;1;1;21;15;p;1;0.5641519000000699;001;FSMM90;2019_Dec_19_1343;iat_vr;60.1649964863635;
4;STEIN;Natur;q;1;2;22;14;q;1;0.613488300001336;001;FSMM90;2019_Dec_19_1343;iat_vr;60.1649964863635;
4;STADT;Gemacht;p;1;3;23;16;p;1;0.584834299999784;001;FSMM90;2019_Dec_19_1343;iat_vr;60.1649964863635;
4;AUSGEZEICHNET;positiv;p;1;4;24;5;p;1;0.601031399999556;001;FSMM90;2019_Dec_19_1343;iat_vr;60.1649964863635;
4;GUT;positiv;p;1;5;25;9;p;1;0.5818319999998494;001;FSMM90;2019_Dec_19_1343;iat_vr;60.1649964863635;
4;EINWANDFREI;positiv;p;1;6;26;6;p;1;0.5777225000001636;001;FSMM90;2019_Dec_19_1343;iat_vr;60.1649964863635;
4;LAMPE;Gemacht;p;1;7;27;19;p;1;0.5820683000001736;001;FSMM90;2019_Dec_19_1343;iat_vr;60.1649964863635;
4;SCHLECHT;negativ;q;1;8;28;1;q;1;0.5795723999999609;001;FSMM90;2019_Dec_19_1343;iat_vr;60.1649964863635;
4;SCHWACH;negativ;q;1;9;29;4;q;1;0.5647132999984024;001;FSMM90;2019_Dec_19_1343;iat_vr;60.1649964863635;
4;WASSER;Natur;q;1;10;30;11;q;1;0.6134309000008216;001;FSMM90;2019_Dec_19_1343;iat_vr;60.1649964863635;
4;KLEIDER;Gemacht;p;1;11;31;17;p;1;0.5953689999987546;001;FSMM90;2019_Dec_19_1343;iat_vr;60.1649964863635;
4;TIER;Natur;q;1;12;32;13;q;1;0.6321243999991566;001;FSMM90;2019_Dec_19_1343;iat_vr;60.1649964863635;
4;SCHLIMM;negativ;q;1;13;33;0;q;1;0.6348493999994389;001;FSMM90;2019_Dec_19_1343;iat_vr;60.1649964863635;
4;BAUM;Natur;q;1;14;34;10;q;1;0.5988820000002306;001;FSMM90;2019_Dec_19_1343;iat_vr;60.1649964863635;
4;POSITIV;positiv;p;1;15;35;8;p;1;0.5797994999993534;001;FSMM90;2019_Dec_19_1343;iat_vr;60.1649964863635;
4;BLUME;Natur;q;1;16;36;12;q;1;0.598379200000636;001;FSMM90;2019_Dec_19_1343;iat_vr;60.1649964863635;
4;SCHÄDLICH;negativ;q;1;17;37;3;q;1;1.0299776000010752;001;FSMM90;2019_Dec_19_1343;iat_vr;60.1649964863635;
4;HERVORRAGEND;positiv;p;1;18;38;7;p;1;0.5945862000007764;001;FSMM90;2019_Dec_19_1343;iat_vr;60.1649964863635;
4;COMPUTER;Gemacht;p;1;19;39;18;p;1;0.6140637999997125;001;FSMM90;2019_Dec_19_1343;iat_vr;60.1649964863635;
;;;;;;;;;;;001;FSMM90;2019_Dec_19_1343;iat_vr;60.1649964863635;
5;WASSER;Natur;p;0;0;0;1;p;1;0.8064063999991049;001;FSMM90;2019_Dec_19_1343;iat_vr;60.1649964863635;
5;BLUME;Natur;p;0;1;1;2;p;1;0.49826199999915843;001;FSMM90;2019_Dec_19_1343;iat_vr;60.1649964863635;
5;COMPUTER;Gemacht;q;0;2;2;8;q;1;0.5289451999997254;001;FSMM90;2019_Dec_19_1343;iat_vr;60.1649964863635;
5;STADT;Gemacht;q;0;3;3;6;q;1;0.5301135999998223;001;FSMM90;2019_Dec_19_1343;iat_vr;60.1649964863635;
5;TIER;Natur;p;0;4;4;3;p;1;0.564189599999736;001;FSMM90;2019_Dec_19_1343;iat_vr;60.1649964863635;
5;BAUM;Natur;p;0;5;5;0;p;1;0.531140699999014;001;FSMM90;2019_Dec_19_1343;iat_vr;60.1649964863635;
5;LAMPE;Gemacht;q;0;6;6;9;q;1;0.5801460999991832;001;FSMM90;2019_Dec_19_1343;iat_vr;60.1649964863635;
5;GEBÄUDE;Gemacht;q;0;7;7;5;q;1;0.531084500000361;001;FSMM90;2019_Dec_19_1343;iat_vr;60.1649964863635;
5;KLEIDER;Gemacht;q;0;8;8;7;q;1;0.6314480999990337;001;FSMM90;2019_Dec_19_1343;iat_vr;60.1649964863635;
5;STEIN;Natur;p;0;9;9;4;p;1;0.6155245999998442;001;FSMM90;2019_Dec_19_1343;iat_vr;60.1649964863635;
5;COMPUTER;Gemacht;q;1;0;10;8;q;1;0.5622689999981958;001;FSMM90;2019_Dec_19_1343;iat_vr;60.1649964863635;
5;STADT;Gemacht;q;1;1;11;6;q;1;0.581052899999122;001;FSMM90;2019_Dec_19_1343;iat_vr;60.1649964863635;
5;BAUM;Natur;p;1;2;12;0;p;1;0.5025736999996298;001;FSMM90;2019_Dec_19_1343;iat_vr;60.1649964863635;
5;STEIN;Natur;p;1;3;13;4;p;1;0.5814972000007401;001;FSMM90;2019_Dec_19_1343;iat_vr;60.1649964863635;
5;WASSER;Natur;p;1;4;14;1;p;1;0.5461531000000832;001;FSMM90;2019_Dec_19_1343;iat_vr;60.1649964863635;
5;LAMPE;Gemacht;q;1;5;15;9;q;1;0.5678228999986459;001;FSMM90;2019_Dec_19_1343;iat_vr;60.1649964863635;
5;TIER;Natur;p;1;6;16;3;p;1;0.49937080000017886;001;FSMM90;2019_Dec_19_1343;iat_vr;60.1649964863635;
5;GEBÄUDE;Gemacht;q;1;7;17;5;q;1;0.5815837999998621;001;FSMM90;2019_Dec_19_1343;iat_vr;60.1649964863635;
5;KLEIDER;Gemacht;q;1;8;18;7;q;1;0.7411704999994981;001;FSMM90;2019_Dec_19_1343;iat_vr;60.1649964863635;
5;BLUME;Natur;p;1;9;19;2;p;1;0.5305040000002919;001;FSMM90;2019_Dec_19_1343;iat_vr;60.1649964863635;
;;;;;;;;;;;001;FSMM90;2019_Dec_19_1343;iat_vr;60.1649964863635;
6;POSITIV;positiv;p;0;0;0;18;p;1;0.6553168999998888;001;FSMM90;2019_Dec_19_1343;iat_vr;60.1649964863635;
6;GEBÄUDE;Gemacht;q;0;1;1;5;q;1;0.7299075999999332;001;FSMM90;2019_Dec_19_1343;iat_vr;60.1649964863635;
6;SCHÄDLICH;negativ;q;0;2;2;13;q;1;1.277767200001108;001;FSMM90;2019_Dec_19_1343;iat_vr;60.1649964863635;
6;STEIN;Natur;p;0;3;3;4;p;1;0.5987370000002556;001;FSMM90;2019_Dec_19_1343;iat_vr;60.1649964863635;
6;GUT;positiv;p;0;4;4;19;p;1;0.6152025999999751;001;FSMM90;2019_Dec_19_1343;iat_vr;60.1649964863635;
6;EINWANDFREI;positiv;p;0;5;5;16;p;1;0.8113088999998581;001;FSMM90;2019_Dec_19_1343;iat_vr;60.1649964863635;
6;BAUM;Natur;p;0;6;6;0;p;1;0.6336723000003985;001;FSMM90;2019_Dec_19_1343;iat_vr;60.1649964863635;
6;HERVORRAGEND;positiv;p;0;7;7;17;p;1;0.6102348000003985;001;FSMM90;2019_Dec_19_1343;iat_vr;60.1649964863635;
6;COMPUTER;Gemacht;q;0;8;8;8;q;1;0.7127104999999574;001;FSMM90;2019_Dec_19_1343;iat_vr;60.1649964863635;
6;LAMPE;Gemacht;q;0;9;9;9;q;1;0.6321336000000883;001;FSMM90;2019_Dec_19_1343;iat_vr;60.1649964863635;
6;SCHWACH;negativ;q;0;10;10;14;q;1;0.6141415999991295;001;FSMM90;2019_Dec_19_1343;iat_vr;60.1649964863635;
6;STADT;Gemacht;q;0;11;11;6;q;1;0.6312644999998156;001;FSMM90;2019_Dec_19_1343;iat_vr;60.1649964863635;
6;NEGATIV;negativ;q;0;12;12;12;q;1;0.6299832999993669;001;FSMM90;2019_Dec_19_1343;iat_vr;60.1649964863635;
6;AUSGEZEICHNET;positiv;p;0;13;13;15;p;1;0.6435315999988234;001;FSMM90;2019_Dec_19_1343;iat_vr;60.1649964863635;
6;TIER;Natur;p;0;14;14;3;p;1;0.5660174999993615;001;FSMM90;2019_Dec_19_1343;iat_vr;60.1649964863635;
6;KLEIDER;Gemacht;q;0;15;15;7;q;1;0.7122811000008369;001;FSMM90;2019_Dec_19_1343;iat_vr;60.1649964863635;
6;SCHLIMM;negativ;q;0;16;16;10;q;1;0.6624891999999818;001;FSMM90;2019_Dec_19_1343;iat_vr;60.1649964863635;
6;BLUME;Natur;p;0;17;17;2;p;1;0.5984564999998838;001;FSMM90;2019_Dec_19_1343;iat_vr;60.1649964863635;
6;WASSER;Natur;p;0;18;18;1;p;1;0.5647177000009833;001;FSMM90;2019_Dec_19_1343;iat_vr;60.1649964863635;
6;SCHLECHT;negativ;q;0;19;19;11;q;1;0.7962179000005563;001;FSMM90;2019_Dec_19_1343;iat_vr;60.1649964863635;
;;;;;;;;;;;001;FSMM90;2019_Dec_19_1343;iat_vr;60.1649964863635;
7;STADT;Gemacht;q;0;0;0;6;q;1;0.8307414000009885;001;FSMM90;2019_Dec_19_1343;iat_vr;60.1649964863635;
7;NEGATIV;negativ;q;0;1;1;12;q;1;0.4975332000012713;001;FSMM90;2019_Dec_19_1343;iat_vr;60.1649964863635;
7;POSITIV;positiv;p;0;2;2;18;p;1;0.5459778000004007;001;FSMM90;2019_Dec_19_1343;iat_vr;60.1649964863635;
7;SCHLECHT;negativ;q;0;3;3;11;q;1;0.5972698999994464;001;FSMM90;2019_Dec_19_1343;iat_vr;60.1649964863635;
7;AUSGEZEICHNET;positiv;p;0;4;4;15;p;1;0.8920340999993641;001;FSMM90;2019_Dec_19_1343;iat_vr;60.1649964863635;
7;SCHÄDLICH;negativ;q;0;5;5;13;q;1;0.613253600000462;001;FSMM90;2019_Dec_19_1343;iat_vr;60.1649964863635;
7;BLUME;Natur;p;0;6;6;2;p;1;0.880220899998676;001;FSMM90;2019_Dec_19_1343;iat_vr;60.1649964863635;
7;EINWANDFREI;positiv;p;0;7;7;16;p;1;0.6619208000010985;001;FSMM90;2019_Dec_19_1343;iat_vr;60.1649964863635;
7;COMPUTER;Gemacht;q;0;8;8;8;q;1;0.6124422000011691;001;FSMM90;2019_Dec_19_1343;iat_vr;60.1649964863635;
7;SCHLIMM;negativ;q;0;9;9;10;q;1;0.614082199999757;001;FSMM90;2019_Dec_19_1343;iat_vr;60.1649964863635;
7;KLEIDER;Gemacht;q;0;10;10;7;q;1;0.7003253000002587;001;FSMM90;2019_Dec_19_1343;iat_vr;60.1649964863635;
7;WASSER;Natur;p;0;11;11;1;p;1;0.5812745000002906;001;FSMM90;2019_Dec_19_1343;iat_vr;60.1649964863635;
7;SCHWACH;negativ;q;0;12;12;14;q;1;0.597578800001429;001;FSMM90;2019_Dec_19_1343;iat_vr;60.1649964863635;
7;LAMPE;Gemacht;q;0;13;13;9;q;1;0.6986680999998498;001;FSMM90;2019_Dec_19_1343;iat_vr;60.1649964863635;
7;BAUM;Natur;p;0;14;14;0;p;1;0.6190573000003496;001;FSMM90;2019_Dec_19_1343;iat_vr;60.1649964863635;
7;GEBÄUDE;Gemacht;q;0;15;15;5;p;0;0.5791744999987714;001;FSMM90;2019_Dec_19_1343;iat_vr;60.1649964863635;
7;GUT;positiv;p;0;16;16;19;p;1;0.913058699999965;001;FSMM90;2019_Dec_19_1343;iat_vr;60.1649964863635;
7;TIER;Natur;p;0;17;17;3;p;1;0.6488840000001801;001;FSMM90;2019_Dec_19_1343;iat_vr;60.1649964863635;
7;STEIN;Natur;p;0;18;18;4;p;1;0.68007359999865;001;FSMM90;2019_Dec_19_1343;iat_vr;60.1649964863635;
7;HERVORRAGEND;positiv;p;0;19;19;17;p;1;0.6448512000006303;001;FSMM90;2019_Dec_19_1343;iat_vr;60.1649964863635;
7;WASSER;Natur;p;1;0;20;1;p;1;0.6181424000005791;001;FSMM90;2019_Dec_19_1343;iat_vr;60.1649964863635;
7;HERVORRAGEND;positiv;p;1;1;21;17;p;1;0.6295542999996542;001;FSMM90;2019_Dec_19_1343;iat_vr;60.1649964863635;
7;AUSGEZEICHNET;positiv;p;1;2;22;15;p;1;0.611334800001714;001;FSMM90;2019_Dec_19_1343;iat_vr;60.1649964863635;
7;GUT;positiv;p;1;3;23;19;p;1;0.5993665999994846;001;FSMM90;2019_Dec_19_1343;iat_vr;60.1649964863635;
7;NEGATIV;negativ;q;1;4;24;12;q;1;0.5975149000005331;001;FSMM90;2019_Dec_19_1343;iat_vr;60.1649964863635;
7;STADT;Gemacht;q;1;5;25;6;q;1;0.5470473999994283;001;FSMM90;2019_Dec_19_1343;iat_vr;60.1649964863635;
7;SCHWACH;negativ;q;1;6;26;14;q;1;0.6320978000003379;001;FSMM90;2019_Dec_19_1343;iat_vr;60.1649964863635;
7;LAMPE;Gemacht;q;1;7;27;9;q;1;0.66539179999927;001;FSMM90;2019_Dec_19_1343;iat_vr;60.1649964863635;
7;TIER;Natur;p;1;8;28;3;p;1;0.581448700000692;001;FSMM90;2019_Dec_19_1343;iat_vr;60.1649964863635;
7;BAUM;Natur;p;1;9;29;0;p;1;0.5989699000001565;001;FSMM90;2019_Dec_19_1343;iat_vr;60.1649964863635;
7;STEIN;Natur;p;1;10;30;4;p;1;0.5666460000011284;001;FSMM90;2019_Dec_19_1343;iat_vr;60.1649964863635;
7;GEBÄUDE;Gemacht;q;1;11;31;5;q;1;0.6969270000008692;001;FSMM90;2019_Dec_19_1343;iat_vr;60.1649964863635;
7;SCHÄDLICH;negativ;q;1;12;32;13;q;1;0.7465804000003118;001;FSMM90;2019_Dec_19_1343;iat_vr;60.1649964863635;
7;KLEIDER;Gemacht;q;1;13;33;7;q;1;0.6803122000001167;001;FSMM90;2019_Dec_19_1343;iat_vr;60.1649964863635;
7;BLUME;Natur;p;1;14;34;2;p;1;0.5474986999997782;001;FSMM90;2019_Dec_19_1343;iat_vr;60.1649964863635;
7;SCHLIMM;negativ;q;1;15;35;10;q;1;0.6476462999999058;001;FSMM90;2019_Dec_19_1343;iat_vr;60.1649964863635;
7;EINWANDFREI;positiv;p;1;16;36;16;p;1;0.6262034000010317;001;FSMM90;2019_Dec_19_1343;iat_vr;60.1649964863635;
7;COMPUTER;Gemacht;q;1;17;37;8;q;1;0.6140705999987404;001;FSMM90;2019_Dec_19_1343;iat_vr;60.1649964863635;
7;SCHLECHT;negativ;q;1;18;38;11;q;1;0.5850421000013739;001;FSMM90;2019_Dec_19_1343;iat_vr;60.1649964863635;
7;POSITIV;positiv;p;1;19;39;18;p;1;0.5807934999993449;001;FSMM90;2019_Dec_19_1343;iat_vr;60.1649964863635;
;;;;;;;;;;;001;FSMM90;2019_Dec_19_1343;iat_vr;60.1649964863635;
