Block;Word;Category;CorrResp;trials.thisRepN;trials.thisTrialN;trials.thisN;trials.thisIndex;key_resp_2.keys;key_resp_2.corr;key_resp_2.rt;session;participant;date;expName;frameRate;
1;BLUME;Natur;q;0;0;0;2;q;1;0.77400990000001;002;FSNK87;2019_Dec_19_1119;iat_vr;59.99944800507702;
1;GEBÄUDE;Gemacht;p;0;1;1;5;p;1;0.7883634999998321;002;FSNK87;2019_Dec_19_1119;iat_vr;59.99944800507702;
1;LAMPE;Gemacht;p;0;2;2;9;p;1;0.6697021999998469;002;FSNK87;2019_Dec_19_1119;iat_vr;59.99944800507702;
1;COMPUTER;Gemacht;p;0;3;3;8;p;1;0.5416841000001114;002;FSNK87;2019_Dec_19_1119;iat_vr;59.99944800507702;
1;STADT;Gemacht;p;0;4;4;6;q;0;0.7345640000000913;002;FSNK87;2019_Dec_19_1119;iat_vr;59.99944800507702;
1;STEIN;Natur;q;0;5;5;4;q;1;1.0174581000001126;002;FSNK87;2019_Dec_19_1119;iat_vr;59.99944800507702;
1;WASSER;Natur;q;0;6;6;1;q;1;0.4630638999999519;002;FSNK87;2019_Dec_19_1119;iat_vr;59.99944800507702;
1;TIER;Natur;q;0;7;7;3;p;0;0.6654513999999381;002;FSNK87;2019_Dec_19_1119;iat_vr;59.99944800507702;
1;BAUM;Natur;q;0;8;8;0;q;1;0.7185269999999946;002;FSNK87;2019_Dec_19_1119;iat_vr;59.99944800507702;
1;KLEIDER;Gemacht;p;0;9;9;7;p;1;0.5855650999999398;002;FSNK87;2019_Dec_19_1119;iat_vr;59.99944800507702;
1;TIER;Natur;q;1;0;10;3;q;1;0.8660727999999835;002;FSNK87;2019_Dec_19_1119;iat_vr;59.99944800507702;
1;STADT;Gemacht;p;1;1;11;6;p;1;0.6830224000000271;002;FSNK87;2019_Dec_19_1119;iat_vr;59.99944800507702;
1;LAMPE;Gemacht;p;1;2;12;9;p;1;0.6806303999999272;002;FSNK87;2019_Dec_19_1119;iat_vr;59.99944800507702;
1;BAUM;Natur;q;1;3;13;0;q;1;0.5484624999999141;002;FSNK87;2019_Dec_19_1119;iat_vr;59.99944800507702;
1;WASSER;Natur;q;1;4;14;1;q;1;0.9840004000000135;002;FSNK87;2019_Dec_19_1119;iat_vr;59.99944800507702;
1;COMPUTER;Gemacht;p;1;5;15;8;p;1;0.6673697999999604;002;FSNK87;2019_Dec_19_1119;iat_vr;59.99944800507702;
1;BLUME;Natur;q;1;6;16;2;q;1;0.8317434999999023;002;FSNK87;2019_Dec_19_1119;iat_vr;59.99944800507702;
1;GEBÄUDE;Gemacht;p;1;7;17;5;p;1;0.8118934999999965;002;FSNK87;2019_Dec_19_1119;iat_vr;59.99944800507702;
1;KLEIDER;Gemacht;p;1;8;18;7;q;0;1.1647120000000086;002;FSNK87;2019_Dec_19_1119;iat_vr;59.99944800507702;
1;STEIN;Natur;q;1;9;19;4;q;1;0.8970527000001312;002;FSNK87;2019_Dec_19_1119;iat_vr;59.99944800507702;
;;;;;;;;;;;002;FSNK87;2019_Dec_19_1119;iat_vr;59.99944800507702;
2;SCHÄDLICH;negativ;q;0;0;0;3;q;1;1.2925112000000354;002;FSNK87;2019_Dec_19_1119;iat_vr;59.99944800507702;
2;SCHLIMM;negativ;q;0;1;1;0;q;1;0.7987748000000465;002;FSNK87;2019_Dec_19_1119;iat_vr;59.99944800507702;
2;EINWANDFREI;positiv;p;0;2;2;6;p;1;0.6635560999998233;002;FSNK87;2019_Dec_19_1119;iat_vr;59.99944800507702;
2;AUSGEZEICHNET;positiv;p;0;3;3;5;p;1;0.7739251999998942;002;FSNK87;2019_Dec_19_1119;iat_vr;59.99944800507702;
2;POSITIV;positiv;p;0;4;4;8;p;1;0.4261961000001975;002;FSNK87;2019_Dec_19_1119;iat_vr;59.99944800507702;
2;SCHWACH;negativ;q;0;5;5;4;q;1;0.5474942999999257;002;FSNK87;2019_Dec_19_1119;iat_vr;59.99944800507702;
2;GUT;positiv;p;0;6;6;9;p;1;0.5318909000000076;002;FSNK87;2019_Dec_19_1119;iat_vr;59.99944800507702;
2;SCHLECHT;negativ;q;0;7;7;1;q;1;0.5961200000001554;002;FSNK87;2019_Dec_19_1119;iat_vr;59.99944800507702;
2;NEGATIV;negativ;q;0;8;8;2;q;1;0.683124399999997;002;FSNK87;2019_Dec_19_1119;iat_vr;59.99944800507702;
2;HERVORRAGEND;positiv;p;0;9;9;7;p;1;0.962831499999993;002;FSNK87;2019_Dec_19_1119;iat_vr;59.99944800507702;
2;HERVORRAGEND;positiv;p;1;0;10;7;p;1;0.48361039999986133;002;FSNK87;2019_Dec_19_1119;iat_vr;59.99944800507702;
2;AUSGEZEICHNET;positiv;p;1;1;11;5;p;1;1.1109923000001345;002;FSNK87;2019_Dec_19_1119;iat_vr;59.99944800507702;
2;SCHLIMM;negativ;q;1;2;12;0;p;0;1.899534200000062;002;FSNK87;2019_Dec_19_1119;iat_vr;59.99944800507702;
2;SCHWACH;negativ;q;1;3;13;4;q;1;0.8812994999998409;002;FSNK87;2019_Dec_19_1119;iat_vr;59.99944800507702;
2;POSITIV;positiv;p;1;4;14;8;p;1;0.497190000000046;002;FSNK87;2019_Dec_19_1119;iat_vr;59.99944800507702;
2;SCHÄDLICH;negativ;q;1;5;15;3;q;1;0.5805704000001697;002;FSNK87;2019_Dec_19_1119;iat_vr;59.99944800507702;
2;NEGATIV;negativ;q;1;6;16;2;q;1;0.9311866000000464;002;FSNK87;2019_Dec_19_1119;iat_vr;59.99944800507702;
2;GUT;positiv;p;1;7;17;9;p;1;0.7330701000000772;002;FSNK87;2019_Dec_19_1119;iat_vr;59.99944800507702;
2;EINWANDFREI;positiv;p;1;8;18;6;p;1;2.1269035999998778;002;FSNK87;2019_Dec_19_1119;iat_vr;59.99944800507702;
2;SCHLECHT;negativ;q;1;9;19;1;q;1;0.618349599999874;002;FSNK87;2019_Dec_19_1119;iat_vr;59.99944800507702;
;;;;;;;;;;;002;FSNK87;2019_Dec_19_1119;iat_vr;59.99944800507702;
3;GUT;positiv;p;0;0;0;9;p;1;1.0253726000000825;002;FSNK87;2019_Dec_19_1119;iat_vr;59.99944800507702;
3;SCHLECHT;negativ;q;0;1;1;1;q;1;0.7292193999999199;002;FSNK87;2019_Dec_19_1119;iat_vr;59.99944800507702;
3;AUSGEZEICHNET;positiv;p;0;2;2;5;p;1;0.6964226000000053;002;FSNK87;2019_Dec_19_1119;iat_vr;59.99944800507702;
3;STADT;Gemacht;p;0;3;3;16;q;0;0.98516410000002;002;FSNK87;2019_Dec_19_1119;iat_vr;59.99944800507702;
3;SCHWACH;negativ;q;0;4;4;4;q;1;1.1527127000001656;002;FSNK87;2019_Dec_19_1119;iat_vr;59.99944800507702;
3;LAMPE;Gemacht;p;0;5;5;19;p;1;1.053108199999997;002;FSNK87;2019_Dec_19_1119;iat_vr;59.99944800507702;
3;SCHLIMM;negativ;q;0;6;6;0;q;1;0.7806911999998647;002;FSNK87;2019_Dec_19_1119;iat_vr;59.99944800507702;
3;POSITIV;positiv;p;0;7;7;8;p;1;0.6466562000000522;002;FSNK87;2019_Dec_19_1119;iat_vr;59.99944800507702;
3;EINWANDFREI;positiv;p;0;8;8;6;p;1;0.6607709999998406;002;FSNK87;2019_Dec_19_1119;iat_vr;59.99944800507702;
3;WASSER;Natur;q;0;9;9;11;q;1;0.8660095000000183;002;FSNK87;2019_Dec_19_1119;iat_vr;59.99944800507702;
3;BLUME;Natur;q;0;10;10;12;q;1;0.6653334000000086;002;FSNK87;2019_Dec_19_1119;iat_vr;59.99944800507702;
3;BAUM;Natur;q;0;11;11;10;q;1;0.785332199999857;002;FSNK87;2019_Dec_19_1119;iat_vr;59.99944800507702;
3;KLEIDER;Gemacht;p;0;12;12;17;p;1;0.6785886000000119;002;FSNK87;2019_Dec_19_1119;iat_vr;59.99944800507702;
3;GEBÄUDE;Gemacht;p;0;13;13;15;p;1;0.6661326999999346;002;FSNK87;2019_Dec_19_1119;iat_vr;59.99944800507702;
3;NEGATIV;negativ;q;0;14;14;2;p;0;0.6965324000000237;002;FSNK87;2019_Dec_19_1119;iat_vr;59.99944800507702;
3;STEIN;Natur;q;0;15;15;14;q;1;0.9157978000000639;002;FSNK87;2019_Dec_19_1119;iat_vr;59.99944800507702;
3;TIER;Natur;q;0;16;16;13;q;1;0.5490423999999621;002;FSNK87;2019_Dec_19_1119;iat_vr;59.99944800507702;
3;COMPUTER;Gemacht;p;0;17;17;18;p;1;0.728159499999947;002;FSNK87;2019_Dec_19_1119;iat_vr;59.99944800507702;
3;SCHÄDLICH;negativ;q;0;18;18;3;q;1;1.096003200000041;002;FSNK87;2019_Dec_19_1119;iat_vr;59.99944800507702;
3;HERVORRAGEND;positiv;p;0;19;19;7;p;1;0.7432889000001524;002;FSNK87;2019_Dec_19_1119;iat_vr;59.99944800507702;
;;;;;;;;;;;002;FSNK87;2019_Dec_19_1119;iat_vr;59.99944800507702;
4;SCHLECHT;negativ;q;0;0;0;1;q;1;0.7456497000000581;002;FSNK87;2019_Dec_19_1119;iat_vr;59.99944800507702;
4;KLEIDER;Gemacht;p;0;1;1;17;p;1;0.6956379000000652;002;FSNK87;2019_Dec_19_1119;iat_vr;59.99944800507702;
4;EINWANDFREI;positiv;p;0;2;2;6;p;1;0.9625167000001511;002;FSNK87;2019_Dec_19_1119;iat_vr;59.99944800507702;
4;LAMPE;Gemacht;p;0;3;3;19;p;1;0.7504244000001563;002;FSNK87;2019_Dec_19_1119;iat_vr;59.99944800507702;
4;BLUME;Natur;q;0;4;4;12;q;1;0.7348325999998906;002;FSNK87;2019_Dec_19_1119;iat_vr;59.99944800507702;
4;NEGATIV;negativ;q;0;5;5;2;q;1;0.6676147999999102;002;FSNK87;2019_Dec_19_1119;iat_vr;59.99944800507702;
4;STEIN;Natur;q;0;6;6;14;q;1;1.0679132000000209;002;FSNK87;2019_Dec_19_1119;iat_vr;59.99944800507702;
4;SCHÄDLICH;negativ;q;0;7;7;3;q;1;0.7191152000000329;002;FSNK87;2019_Dec_19_1119;iat_vr;59.99944800507702;
4;TIER;Natur;q;0;8;8;13;q;1;0.8321250999999847;002;FSNK87;2019_Dec_19_1119;iat_vr;59.99944800507702;
4;STADT;Gemacht;p;0;9;9;16;q;0;0.664790499999981;002;FSNK87;2019_Dec_19_1119;iat_vr;59.99944800507702;
4;GEBÄUDE;Gemacht;p;0;10;10;15;q;0;0.5630125000000135;002;FSNK87;2019_Dec_19_1119;iat_vr;59.99944800507702;
4;AUSGEZEICHNET;positiv;p;0;11;11;5;q;0;1.4765151000001424;002;FSNK87;2019_Dec_19_1119;iat_vr;59.99944800507702;
4;GUT;positiv;p;0;12;12;9;p;1;0.6305920999998307;002;FSNK87;2019_Dec_19_1119;iat_vr;59.99944800507702;
4;WASSER;Natur;q;0;13;13;11;q;1;0.8004130000001624;002;FSNK87;2019_Dec_19_1119;iat_vr;59.99944800507702;
4;SCHLIMM;negativ;q;0;14;14;0;q;1;1.4007687000000715;002;FSNK87;2019_Dec_19_1119;iat_vr;59.99944800507702;
4;BAUM;Natur;q;0;15;15;10;p;0;0.9011615000001711;002;FSNK87;2019_Dec_19_1119;iat_vr;59.99944800507702;
4;SCHWACH;negativ;q;0;16;16;4;q;1;1.8815157999999883;002;FSNK87;2019_Dec_19_1119;iat_vr;59.99944800507702;
4;COMPUTER;Gemacht;p;0;17;17;18;p;1;0.880838199999971;002;FSNK87;2019_Dec_19_1119;iat_vr;59.99944800507702;
4;HERVORRAGEND;positiv;p;0;18;18;7;q;0;0.7641440999998395;002;FSNK87;2019_Dec_19_1119;iat_vr;59.99944800507702;
4;POSITIV;positiv;p;0;19;19;8;p;1;0.7648123999999825;002;FSNK87;2019_Dec_19_1119;iat_vr;59.99944800507702;
4;GUT;positiv;p;1;0;20;9;q;0;0.7327488999999332;002;FSNK87;2019_Dec_19_1119;iat_vr;59.99944800507702;
4;BLUME;Natur;q;1;1;21;12;p;0;0.9144859000000451;002;FSNK87;2019_Dec_19_1119;iat_vr;59.99944800507702;
4;NEGATIV;negativ;q;1;2;22;2;p;0;1.877275900000086;002;FSNK87;2019_Dec_19_1119;iat_vr;59.99944800507702;
4;SCHLECHT;negativ;q;1;3;23;1;q;1;0.8472417000000405;002;FSNK87;2019_Dec_19_1119;iat_vr;59.99944800507702;
4;EINWANDFREI;positiv;p;1;4;24;6;p;1;1.4674153000000842;002;FSNK87;2019_Dec_19_1119;iat_vr;59.99944800507702;
4;TIER;Natur;q;1;5;25;13;q;1;1.0001796999999897;002;FSNK87;2019_Dec_19_1119;iat_vr;59.99944800507702;
4;BAUM;Natur;q;1;6;26;10;q;1;0.7024154999999155;002;FSNK87;2019_Dec_19_1119;iat_vr;59.99944800507702;
4;KLEIDER;Gemacht;p;1;7;27;17;p;1;0.7652442999999494;002;FSNK87;2019_Dec_19_1119;iat_vr;59.99944800507702;
4;WASSER;Natur;q;1;8;28;11;p;0;0.7636135000000195;002;FSNK87;2019_Dec_19_1119;iat_vr;59.99944800507702;
4;GEBÄUDE;Gemacht;p;1;9;29;15;q;0;0.712257000000136;002;FSNK87;2019_Dec_19_1119;iat_vr;59.99944800507702;
4;POSITIV;positiv;p;1;10;30;8;p;1;0.8183727000000545;002;FSNK87;2019_Dec_19_1119;iat_vr;59.99944800507702;
4;COMPUTER;Gemacht;p;1;11;31;18;q;0;0.8815342000000328;002;FSNK87;2019_Dec_19_1119;iat_vr;59.99944800507702;
4;STADT;Gemacht;p;1;12;32;16;p;1;1.5486035999999785;002;FSNK87;2019_Dec_19_1119;iat_vr;59.99944800507702;
4;STEIN;Natur;q;1;13;33;14;q;1;0.8463526999998976;002;FSNK87;2019_Dec_19_1119;iat_vr;59.99944800507702;
4;SCHÄDLICH;negativ;q;1;14;34;3;p;0;1.3471544999999878;002;FSNK87;2019_Dec_19_1119;iat_vr;59.99944800507702;
4;SCHLIMM;negativ;q;1;15;35;0;q;1;1.4843728999999257;002;FSNK87;2019_Dec_19_1119;iat_vr;59.99944800507702;
4;SCHWACH;negativ;q;1;16;36;4;q;1;1.5482664000001023;002;FSNK87;2019_Dec_19_1119;iat_vr;59.99944800507702;
4;HERVORRAGEND;positiv;p;1;17;37;7;p;1;0.8917205000000195;002;FSNK87;2019_Dec_19_1119;iat_vr;59.99944800507702;
4;AUSGEZEICHNET;positiv;p;1;18;38;5;p;1;0.575061900000037;002;FSNK87;2019_Dec_19_1119;iat_vr;59.99944800507702;
4;LAMPE;Gemacht;p;1;19;39;19;q;0;0.8136916999999357;002;FSNK87;2019_Dec_19_1119;iat_vr;59.99944800507702;
;;;;;;;;;;;002;FSNK87;2019_Dec_19_1119;iat_vr;59.99944800507702;
5;BAUM;Natur;p;0;0;0;0;q;0;1.2807456999998976;002;FSNK87;2019_Dec_19_1119;iat_vr;59.99944800507702;
5;STADT;Gemacht;q;0;1;1;6;q;1;0.8185703999999987;002;FSNK87;2019_Dec_19_1119;iat_vr;59.99944800507702;
5;STEIN;Natur;p;0;2;2;4;p;1;0.6692083999998886;002;FSNK87;2019_Dec_19_1119;iat_vr;59.99944800507702;
5;KLEIDER;Gemacht;q;0;3;3;7;q;1;0.7315874999999323;002;FSNK87;2019_Dec_19_1119;iat_vr;59.99944800507702;
5;LAMPE;Gemacht;q;0;4;4;9;q;1;1.0482930999999098;002;FSNK87;2019_Dec_19_1119;iat_vr;59.99944800507702;
5;COMPUTER;Gemacht;q;0;5;5;8;q;1;0.6135643000000073;002;FSNK87;2019_Dec_19_1119;iat_vr;59.99944800507702;
5;GEBÄUDE;Gemacht;q;0;6;6;5;q;1;0.8630212000000483;002;FSNK87;2019_Dec_19_1119;iat_vr;59.99944800507702;
5;BLUME;Natur;p;0;7;7;2;p;1;0.43146569999998974;002;FSNK87;2019_Dec_19_1119;iat_vr;59.99944800507702;
5;WASSER;Natur;p;0;8;8;1;p;1;0.38578240000015285;002;FSNK87;2019_Dec_19_1119;iat_vr;59.99944800507702;
5;TIER;Natur;p;0;9;9;3;p;1;0.41636429999994107;002;FSNK87;2019_Dec_19_1119;iat_vr;59.99944800507702;
5;COMPUTER;Gemacht;q;1;0;10;8;q;1;0.718798900000138;002;FSNK87;2019_Dec_19_1119;iat_vr;59.99944800507702;
5;STEIN;Natur;p;1;1;11;4;p;1;0.9479796999999053;002;FSNK87;2019_Dec_19_1119;iat_vr;59.99944800507702;
5;STADT;Gemacht;q;1;2;12;6;q;1;0.6123852000000625;002;FSNK87;2019_Dec_19_1119;iat_vr;59.99944800507702;
5;BLUME;Natur;p;1;3;13;2;p;1;1.162437299999965;002;FSNK87;2019_Dec_19_1119;iat_vr;59.99944800507702;
5;TIER;Natur;p;1;4;14;3;p;1;0.8659023000000161;002;FSNK87;2019_Dec_19_1119;iat_vr;59.99944800507702;
5;GEBÄUDE;Gemacht;q;1;5;15;5;q;1;0.5981747000000723;002;FSNK87;2019_Dec_19_1119;iat_vr;59.99944800507702;
5;LAMPE;Gemacht;q;1;6;16;9;q;1;0.7810512999999446;002;FSNK87;2019_Dec_19_1119;iat_vr;59.99944800507702;
5;WASSER;Natur;p;1;7;17;1;p;1;0.7161842999998953;002;FSNK87;2019_Dec_19_1119;iat_vr;59.99944800507702;
5;BAUM;Natur;p;1;8;18;0;q;0;0.6479939000000741;002;FSNK87;2019_Dec_19_1119;iat_vr;59.99944800507702;
5;KLEIDER;Gemacht;q;1;9;19;7;p;0;0.3138965000000553;002;FSNK87;2019_Dec_19_1119;iat_vr;59.99944800507702;
;;;;;;;;;;;002;FSNK87;2019_Dec_19_1119;iat_vr;59.99944800507702;
6;SCHÄDLICH;negativ;q;0;0;0;13;q;1;1.471070999999938;002;FSNK87;2019_Dec_19_1119;iat_vr;59.99944800507702;
6;LAMPE;Gemacht;q;0;1;1;9;q;1;0.7969596000000365;002;FSNK87;2019_Dec_19_1119;iat_vr;59.99944800507702;
6;STADT;Gemacht;q;0;2;2;6;q;1;0.598670600000105;002;FSNK87;2019_Dec_19_1119;iat_vr;59.99944800507702;
6;POSITIV;positiv;p;0;3;3;18;p;1;0.5776138000001083;002;FSNK87;2019_Dec_19_1119;iat_vr;59.99944800507702;
6;COMPUTER;Gemacht;q;0;4;4;8;q;1;0.6672668999999587;002;FSNK87;2019_Dec_19_1119;iat_vr;59.99944800507702;
6;BAUM;Natur;p;0;5;5;0;p;1;0.9510903000000326;002;FSNK87;2019_Dec_19_1119;iat_vr;59.99944800507702;
6;NEGATIV;negativ;q;0;6;6;12;q;1;1.132828100000097;002;FSNK87;2019_Dec_19_1119;iat_vr;59.99944800507702;
6;HERVORRAGEND;positiv;p;0;7;7;17;p;1;0.6461575999999241;002;FSNK87;2019_Dec_19_1119;iat_vr;59.99944800507702;
6;GUT;positiv;p;0;8;8;19;p;1;0.3823268000001008;002;FSNK87;2019_Dec_19_1119;iat_vr;59.99944800507702;
6;TIER;Natur;p;0;9;9;3;p;1;0.4762257999998383;002;FSNK87;2019_Dec_19_1119;iat_vr;59.99944800507702;
6;SCHWACH;negativ;q;0;10;10;14;q;1;0.5783387999999832;002;FSNK87;2019_Dec_19_1119;iat_vr;59.99944800507702;
6;EINWANDFREI;positiv;p;0;11;11;16;p;1;0.9627791999998863;002;FSNK87;2019_Dec_19_1119;iat_vr;59.99944800507702;
6;SCHLECHT;negativ;q;0;12;12;11;q;1;0.91257910000013;002;FSNK87;2019_Dec_19_1119;iat_vr;59.99944800507702;
6;BLUME;Natur;p;0;13;13;2;p;1;0.6335431999998491;002;FSNK87;2019_Dec_19_1119;iat_vr;59.99944800507702;
6;GEBÄUDE;Gemacht;q;0;14;14;5;p;0;1.0669534000001022;002;FSNK87;2019_Dec_19_1119;iat_vr;59.99944800507702;
6;WASSER;Natur;p;0;15;15;1;p;1;1.1134416000002147;002;FSNK87;2019_Dec_19_1119;iat_vr;59.99944800507702;
6;AUSGEZEICHNET;positiv;p;0;16;16;15;p;1;0.5627897000001667;002;FSNK87;2019_Dec_19_1119;iat_vr;59.99944800507702;
6;KLEIDER;Gemacht;q;0;17;17;7;q;1;0.5985350000000835;002;FSNK87;2019_Dec_19_1119;iat_vr;59.99944800507702;
6;SCHLIMM;negativ;q;0;18;18;10;q;1;0.6175584000000072;002;FSNK87;2019_Dec_19_1119;iat_vr;59.99944800507702;
6;STEIN;Natur;p;0;19;19;4;p;1;0.8150140000000192;002;FSNK87;2019_Dec_19_1119;iat_vr;59.99944800507702;
;;;;;;;;;;;002;FSNK87;2019_Dec_19_1119;iat_vr;59.99944800507702;
7;SCHWACH;negativ;q;0;0;0;14;q;1;0.9607861000001776;002;FSNK87;2019_Dec_19_1119;iat_vr;59.99944800507702;
7;AUSGEZEICHNET;positiv;p;0;1;1;15;p;1;0.7791532000001098;002;FSNK87;2019_Dec_19_1119;iat_vr;59.99944800507702;
7;HERVORRAGEND;positiv;p;0;2;2;17;p;1;0.5519604999999501;002;FSNK87;2019_Dec_19_1119;iat_vr;59.99944800507702;
7;LAMPE;Gemacht;q;0;3;3;9;q;1;0.5842658999999912;002;FSNK87;2019_Dec_19_1119;iat_vr;59.99944800507702;
7;STEIN;Natur;p;0;4;4;4;p;1;1.2184908000001542;002;FSNK87;2019_Dec_19_1119;iat_vr;59.99944800507702;
7;BLUME;Natur;p;0;5;5;2;p;1;0.5355666999998903;002;FSNK87;2019_Dec_19_1119;iat_vr;59.99944800507702;
7;WASSER;Natur;p;0;6;6;1;p;1;0.5822358999998869;002;FSNK87;2019_Dec_19_1119;iat_vr;59.99944800507702;
7;SCHLECHT;negativ;q;0;7;7;11;q;1;0.614703899999995;002;FSNK87;2019_Dec_19_1119;iat_vr;59.99944800507702;
7;SCHÄDLICH;negativ;q;0;8;8;13;q;1;0.6522807999999714;002;FSNK87;2019_Dec_19_1119;iat_vr;59.99944800507702;
7;NEGATIV;negativ;q;0;9;9;12;q;1;0.49829060000001846;002;FSNK87;2019_Dec_19_1119;iat_vr;59.99944800507702;
7;GEBÄUDE;Gemacht;q;0;10;10;5;p;0;0.6955645000000459;002;FSNK87;2019_Dec_19_1119;iat_vr;59.99944800507702;
7;TIER;Natur;p;0;11;11;3;p;1;0.8140991000000213;002;FSNK87;2019_Dec_19_1119;iat_vr;59.99944800507702;
7;EINWANDFREI;positiv;p;0;12;12;16;p;1;0.5786987999999837;002;FSNK87;2019_Dec_19_1119;iat_vr;59.99944800507702;
7;STADT;Gemacht;q;0;13;13;6;q;1;0.665621400000191;002;FSNK87;2019_Dec_19_1119;iat_vr;59.99944800507702;
7;GUT;positiv;p;0;14;14;19;p;1;0.5655956000000515;002;FSNK87;2019_Dec_19_1119;iat_vr;59.99944800507702;
7;BAUM;Natur;p;0;15;15;0;p;1;0.6810565000000679;002;FSNK87;2019_Dec_19_1119;iat_vr;59.99944800507702;
7;KLEIDER;Gemacht;q;0;16;16;7;q;1;0.9286236999998891;002;FSNK87;2019_Dec_19_1119;iat_vr;59.99944800507702;
7;COMPUTER;Gemacht;q;0;17;17;8;q;1;0.5857562999999573;002;FSNK87;2019_Dec_19_1119;iat_vr;59.99944800507702;
7;SCHLIMM;negativ;q;0;18;18;10;q;1;0.5484460999998646;002;FSNK87;2019_Dec_19_1119;iat_vr;59.99944800507702;
7;POSITIV;positiv;p;0;19;19;18;p;1;0.5690726000000268;002;FSNK87;2019_Dec_19_1119;iat_vr;59.99944800507702;
7;HERVORRAGEND;positiv;p;1;0;20;17;p;1;0.6608673000000636;002;FSNK87;2019_Dec_19_1119;iat_vr;59.99944800507702;
7;WASSER;Natur;p;1;1;21;1;p;1;0.6673167999999805;002;FSNK87;2019_Dec_19_1119;iat_vr;59.99944800507702;
7;GUT;positiv;p;1;2;22;19;p;1;0.6838775000001078;002;FSNK87;2019_Dec_19_1119;iat_vr;59.99944800507702;
7;COMPUTER;Gemacht;q;1;3;23;8;q;1;0.7018746999999621;002;FSNK87;2019_Dec_19_1119;iat_vr;59.99944800507702;
7;POSITIV;positiv;p;1;4;24;18;p;1;0.5844959999999446;002;FSNK87;2019_Dec_19_1119;iat_vr;59.99944800507702;
7;GEBÄUDE;Gemacht;q;1;5;25;5;q;1;1.3519366999998965;002;FSNK87;2019_Dec_19_1119;iat_vr;59.99944800507702;
7;EINWANDFREI;positiv;p;1;6;26;16;p;1;1.013182899999947;002;FSNK87;2019_Dec_19_1119;iat_vr;59.99944800507702;
7;NEGATIV;negativ;q;1;7;27;12;q;1;0.6464390000001004;002;FSNK87;2019_Dec_19_1119;iat_vr;59.99944800507702;
7;AUSGEZEICHNET;positiv;p;1;8;28;15;p;1;0.8618946999999935;002;FSNK87;2019_Dec_19_1119;iat_vr;59.99944800507702;
7;STEIN;Natur;p;1;9;29;4;p;1;0.7682337000001098;002;FSNK87;2019_Dec_19_1119;iat_vr;59.99944800507702;
7;SCHLECHT;negativ;q;1;10;30;11;q;1;0.6814289999999801;002;FSNK87;2019_Dec_19_1119;iat_vr;59.99944800507702;
7;STADT;Gemacht;q;1;11;31;6;q;1;0.7638706000000184;002;FSNK87;2019_Dec_19_1119;iat_vr;59.99944800507702;
7;BLUME;Natur;p;1;12;32;2;p;1;0.5475248999998712;002;FSNK87;2019_Dec_19_1119;iat_vr;59.99944800507702;
7;BAUM;Natur;p;1;13;33;0;p;1;0.7021187999998801;002;FSNK87;2019_Dec_19_1119;iat_vr;59.99944800507702;
7;SCHWACH;negativ;q;1;14;34;14;q;1;0.6808258999999452;002;FSNK87;2019_Dec_19_1119;iat_vr;59.99944800507702;
7;LAMPE;Gemacht;q;1;15;35;9;p;0;0.5308912999998938;002;FSNK87;2019_Dec_19_1119;iat_vr;59.99944800507702;
7;KLEIDER;Gemacht;q;1;16;36;7;q;1;1.6175515999998424;002;FSNK87;2019_Dec_19_1119;iat_vr;59.99944800507702;
7;SCHLIMM;negativ;q;1;17;37;10;q;1;0.6650045999999747;002;FSNK87;2019_Dec_19_1119;iat_vr;59.99944800507702;
7;SCHÄDLICH;negativ;q;1;18;38;13;q;1;0.5804233999999724;002;FSNK87;2019_Dec_19_1119;iat_vr;59.99944800507702;
7;TIER;Natur;p;1;19;39;3;p;1;0.6989518000000317;002;FSNK87;2019_Dec_19_1119;iat_vr;59.99944800507702;
;;;;;;;;;;;002;FSNK87;2019_Dec_19_1119;iat_vr;59.99944800507702;
