Block;Word;Category;CorrResp;trials.thisRepN;trials.thisTrialN;trials.thisN;trials.thisIndex;key_resp_2.keys;key_resp_2.corr;key_resp_2.rt;session;participant;date;expName;frameRate;
1;KLEIDER;Gemacht;p;0;0;0;7;p;1;2.933086799981538;002;JWEE96x;2019_Dec_13_1633;iat_vr;59.97379147000072;
1;BAUM;Natur;q;0;1;1;0;q;1;0.7729709999985062;002;JWEE96x;2019_Dec_13_1633;iat_vr;59.97379147000072;
1;STADT;Gemacht;p;0;2;2;6;p;1;0.625329700007569;002;JWEE96x;2019_Dec_13_1633;iat_vr;59.97379147000072;
1;COMPUTER;Gemacht;p;0;3;3;8;p;1;0.7731585999717936;002;JWEE96x;2019_Dec_13_1633;iat_vr;59.97379147000072;
1;BLUME;Natur;q;0;4;4;2;q;1;0.5295650999760255;002;JWEE96x;2019_Dec_13_1633;iat_vr;59.97379147000072;
1;WASSER;Natur;q;0;5;5;1;q;1;0.5329585999716073;002;JWEE96x;2019_Dec_13_1633;iat_vr;59.97379147000072;
1;STEIN;Natur;q;0;6;6;4;q;1;0.4936071999836713;002;JWEE96x;2019_Dec_13_1633;iat_vr;59.97379147000072;
1;GEBÄUDE;Gemacht;p;0;7;7;5;p;1;0.6220555999898352;002;JWEE96x;2019_Dec_13_1633;iat_vr;59.97379147000072;
1;TIER;Natur;q;0;8;8;3;q;1;0.7363411000114866;002;JWEE96x;2019_Dec_13_1633;iat_vr;59.97379147000072;
1;LAMPE;Gemacht;p;0;9;9;9;p;1;0.5360176999820396;002;JWEE96x;2019_Dec_13_1633;iat_vr;59.97379147000072;
1;COMPUTER;Gemacht;p;1;0;10;8;p;1;0.5629222999559715;002;JWEE96x;2019_Dec_13_1633;iat_vr;59.97379147000072;
1;STEIN;Natur;q;1;1;11;4;q;1;0.6407900000340305;002;JWEE96x;2019_Dec_13_1633;iat_vr;59.97379147000072;
1;TIER;Natur;q;1;2;12;3;q;1;0.5820823999820277;002;JWEE96x;2019_Dec_13_1633;iat_vr;59.97379147000072;
1;BAUM;Natur;q;1;3;13;0;q;1;0.5650528999976814;002;JWEE96x;2019_Dec_13_1633;iat_vr;59.97379147000072;
1;WASSER;Natur;q;1;4;14;1;q;1;0.5485412999987602;002;JWEE96x;2019_Dec_13_1633;iat_vr;59.97379147000072;
1;KLEIDER;Gemacht;p;1;5;15;7;p;1;0.5634083999902941;002;JWEE96x;2019_Dec_13_1633;iat_vr;59.97379147000072;
1;STADT;Gemacht;p;1;6;16;6;p;1;0.5322126999963075;002;JWEE96x;2019_Dec_13_1633;iat_vr;59.97379147000072;
1;BLUME;Natur;q;1;7;17;2;q;1;0.5808799000224099;002;JWEE96x;2019_Dec_13_1633;iat_vr;59.97379147000072;
1;LAMPE;Gemacht;p;1;8;18;9;p;1;1.0083613999886438;002;JWEE96x;2019_Dec_13_1633;iat_vr;59.97379147000072;
1;GEBÄUDE;Gemacht;p;1;9;19;5;p;1;1.1762596999760717;002;JWEE96x;2019_Dec_13_1633;iat_vr;59.97379147000072;
;;;;;;;;;;;002;JWEE96x;2019_Dec_13_1633;iat_vr;59.97379147000072;
2;GUT;positiv;p;0;0;0;9;p;1;2.5065431999973953;002;JWEE96x;2019_Dec_13_1633;iat_vr;59.97379147000072;
2;HERVORRAGEND;positiv;p;0;1;1;7;p;1;0.8372619000147097;002;JWEE96x;2019_Dec_13_1633;iat_vr;59.97379147000072;
2;POSITIV;positiv;p;0;2;2;8;p;1;0.6300989000010304;002;JWEE96x;2019_Dec_13_1633;iat_vr;59.97379147000072;
2;AUSGEZEICHNET;positiv;p;0;3;3;5;p;1;0.6404222999699414;002;JWEE96x;2019_Dec_13_1633;iat_vr;59.97379147000072;
2;SCHLECHT;negativ;q;0;4;4;1;q;1;0.5975321999867447;002;JWEE96x;2019_Dec_13_1633;iat_vr;59.97379147000072;
2;NEGATIV;negativ;q;0;5;5;2;q;1;0.4450576999806799;002;JWEE96x;2019_Dec_13_1633;iat_vr;59.97379147000072;
2;EINWANDFREI;positiv;p;0;6;6;6;p;1;0.47537229995941743;002;JWEE96x;2019_Dec_13_1633;iat_vr;59.97379147000072;
2;SCHLIMM;negativ;q;0;7;7;0;q;1;0.5138724999851547;002;JWEE96x;2019_Dec_13_1633;iat_vr;59.97379147000072;
2;SCHWACH;negativ;q;0;8;8;4;q;1;0.681356200017035;002;JWEE96x;2019_Dec_13_1633;iat_vr;59.97379147000072;
2;SCHÄDLICH;negativ;q;0;9;9;3;q;1;0.8219669999671169;002;JWEE96x;2019_Dec_13_1633;iat_vr;59.97379147000072;
2;SCHLIMM;negativ;q;1;0;10;0;q;1;0.5021426000166684;002;JWEE96x;2019_Dec_13_1633;iat_vr;59.97379147000072;
2;POSITIV;positiv;p;1;1;11;8;p;1;0.46374200005084276;002;JWEE96x;2019_Dec_13_1633;iat_vr;59.97379147000072;
2;SCHLECHT;negativ;q;1;2;12;1;q;1;0.6305366999586113;002;JWEE96x;2019_Dec_13_1633;iat_vr;59.97379147000072;
2;EINWANDFREI;positiv;p;1;3;13;6;p;1;0.6122245999868028;002;JWEE96x;2019_Dec_13_1633;iat_vr;59.97379147000072;
2;GUT;positiv;p;1;4;14;9;p;1;0.515098100004252;002;JWEE96x;2019_Dec_13_1633;iat_vr;59.97379147000072;
2;SCHWACH;negativ;q;1;5;15;4;q;1;0.5154418000020087;002;JWEE96x;2019_Dec_13_1633;iat_vr;59.97379147000072;
2;SCHÄDLICH;negativ;q;1;6;16;3;q;1;1.0801171000348404;002;JWEE96x;2019_Dec_13_1633;iat_vr;59.97379147000072;
2;AUSGEZEICHNET;positiv;p;1;7;17;5;p;1;0.6291111999889836;002;JWEE96x;2019_Dec_13_1633;iat_vr;59.97379147000072;
2;NEGATIV;negativ;q;1;8;18;2;q;1;0.5655130000086501;002;JWEE96x;2019_Dec_13_1633;iat_vr;59.97379147000072;
2;HERVORRAGEND;positiv;p;1;9;19;7;p;1;0.6428864000481553;002;JWEE96x;2019_Dec_13_1633;iat_vr;59.97379147000072;
;;;;;;;;;;;002;JWEE96x;2019_Dec_13_1633;iat_vr;59.97379147000072;
3;GEBÄUDE;Gemacht;p;0;0;0;15;p;1;1.3716269999858923;002;JWEE96x;2019_Dec_13_1633;iat_vr;59.97379147000072;
3;KLEIDER;Gemacht;p;0;1;1;17;p;1;0.7688453000155278;002;JWEE96x;2019_Dec_13_1633;iat_vr;59.97379147000072;
3;POSITIV;positiv;p;0;2;2;8;p;1;0.6625906999688596;002;JWEE96x;2019_Dec_13_1633;iat_vr;59.97379147000072;
3;SCHWACH;negativ;q;0;3;3;4;p;0;0.515813700039871;002;JWEE96x;2019_Dec_13_1633;iat_vr;59.97379147000072;
3;WASSER;Natur;q;0;4;4;11;q;1;0.8817617000313476;002;JWEE96x;2019_Dec_13_1633;iat_vr;59.97379147000072;
3;NEGATIV;negativ;q;0;5;5;2;q;1;1.2971249999827705;002;JWEE96x;2019_Dec_13_1633;iat_vr;59.97379147000072;
3;SCHLECHT;negativ;q;0;6;6;1;q;1;0.8301057999487966;002;JWEE96x;2019_Dec_13_1633;iat_vr;59.97379147000072;
3;EINWANDFREI;positiv;p;0;7;7;6;p;1;1.4133682000101544;002;JWEE96x;2019_Dec_13_1633;iat_vr;59.97379147000072;
3;HERVORRAGEND;positiv;p;0;8;8;7;p;1;0.5138417999842204;002;JWEE96x;2019_Dec_13_1633;iat_vr;59.97379147000072;
3;STADT;Gemacht;p;0;9;9;16;p;1;0.49697709997417405;002;JWEE96x;2019_Dec_13_1633;iat_vr;59.97379147000072;
3;BAUM;Natur;q;0;10;10;10;q;1;0.7162775999750011;002;JWEE96x;2019_Dec_13_1633;iat_vr;59.97379147000072;
3;AUSGEZEICHNET;positiv;p;0;11;11;5;p;1;1.4270463999710046;002;JWEE96x;2019_Dec_13_1633;iat_vr;59.97379147000072;
3;GUT;positiv;p;0;12;12;9;p;1;0.5652399999671616;002;JWEE96x;2019_Dec_13_1633;iat_vr;59.97379147000072;
3;SCHÄDLICH;negativ;q;0;13;13;3;q;1;0.7737991999601945;002;JWEE96x;2019_Dec_13_1633;iat_vr;59.97379147000072;
3;COMPUTER;Gemacht;p;0;14;14;18;p;1;0.5974991000257432;002;JWEE96x;2019_Dec_13_1633;iat_vr;59.97379147000072;
3;BLUME;Natur;q;0;15;15;12;q;1;0.8630624999641441;002;JWEE96x;2019_Dec_13_1633;iat_vr;59.97379147000072;
3;TIER;Natur;q;0;16;16;13;q;1;0.6654130999813788;002;JWEE96x;2019_Dec_13_1633;iat_vr;59.97379147000072;
3;LAMPE;Gemacht;p;0;17;17;19;q;0;0.4158891999977641;002;JWEE96x;2019_Dec_13_1633;iat_vr;59.97379147000072;
3;SCHLIMM;negativ;q;0;18;18;0;p;0;1.5310123999952339;002;JWEE96x;2019_Dec_13_1633;iat_vr;59.97379147000072;
3;STEIN;Natur;q;0;19;19;14;q;1;1.7114098999882117;002;JWEE96x;2019_Dec_13_1633;iat_vr;59.97379147000072;
;;;;;;;;;;;002;JWEE96x;2019_Dec_13_1633;iat_vr;59.97379147000072;
4;BAUM;Natur;q;0;0;0;10;q;1;1.8852304000174627;002;JWEE96x;2019_Dec_13_1633;iat_vr;59.97379147000072;
4;GEBÄUDE;Gemacht;p;0;1;1;15;p;1;0.8794217999675311;002;JWEE96x;2019_Dec_13_1633;iat_vr;59.97379147000072;
4;SCHWACH;negativ;q;0;2;2;4;p;0;1.714908399968408;002;JWEE96x;2019_Dec_13_1633;iat_vr;59.97379147000072;
4;AUSGEZEICHNET;positiv;p;0;3;3;5;p;1;0.6280894000083208;002;JWEE96x;2019_Dec_13_1633;iat_vr;59.97379147000072;
4;BLUME;Natur;q;0;4;4;12;q;1;0.8149019000120461;002;JWEE96x;2019_Dec_13_1633;iat_vr;59.97379147000072;
4;NEGATIV;negativ;q;0;5;5;2;p;0;0.9283701999811456;002;JWEE96x;2019_Dec_13_1633;iat_vr;59.97379147000072;
4;POSITIV;positiv;p;0;6;6;8;q;0;1.2522630000021309;002;JWEE96x;2019_Dec_13_1633;iat_vr;59.97379147000072;
4;WASSER;Natur;q;0;7;7;11;q;1;0.8309225999983028;002;JWEE96x;2019_Dec_13_1633;iat_vr;59.97379147000072;
4;COMPUTER;Gemacht;p;0;8;8;18;p;1;1.730708900024183;002;JWEE96x;2019_Dec_13_1633;iat_vr;59.97379147000072;
4;STADT;Gemacht;p;0;9;9;16;p;1;0.5290598999708891;002;JWEE96x;2019_Dec_13_1633;iat_vr;59.97379147000072;
4;STEIN;Natur;q;0;10;10;14;p;0;0.36501880001742393;002;JWEE96x;2019_Dec_13_1633;iat_vr;59.97379147000072;
4;TIER;Natur;q;0;11;11;13;q;1;0.8664095000131056;002;JWEE96x;2019_Dec_13_1633;iat_vr;59.97379147000072;
4;EINWANDFREI;positiv;p;0;12;12;6;p;1;0.7811746000079438;002;JWEE96x;2019_Dec_13_1633;iat_vr;59.97379147000072;
4;SCHÄDLICH;negativ;q;0;13;13;3;q;1;0.7300679000327364;002;JWEE96x;2019_Dec_13_1633;iat_vr;59.97379147000072;
4;SCHLECHT;negativ;q;0;14;14;1;q;1;0.5808356999768876;002;JWEE96x;2019_Dec_13_1633;iat_vr;59.97379147000072;
4;HERVORRAGEND;positiv;p;0;15;15;7;q;0;0.4951028000214137;002;JWEE96x;2019_Dec_13_1633;iat_vr;59.97379147000072;
4;SCHLIMM;negativ;q;0;16;16;0;q;1;0.9001780999824405;002;JWEE96x;2019_Dec_13_1633;iat_vr;59.97379147000072;
4;KLEIDER;Gemacht;p;0;17;17;17;p;1;2.1280323999817483;002;JWEE96x;2019_Dec_13_1633;iat_vr;59.97379147000072;
4;LAMPE;Gemacht;p;0;18;18;19;p;1;0.39733219996560365;002;JWEE96x;2019_Dec_13_1633;iat_vr;59.97379147000072;
4;GUT;positiv;p;0;19;19;9;p;1;0.4161636999924667;002;JWEE96x;2019_Dec_13_1633;iat_vr;59.97379147000072;
4;LAMPE;Gemacht;p;1;0;20;19;p;1;0.5785670999903232;002;JWEE96x;2019_Dec_13_1633;iat_vr;59.97379147000072;
4;STEIN;Natur;q;1;1;21;14;q;1;0.7149887999985367;002;JWEE96x;2019_Dec_13_1633;iat_vr;59.97379147000072;
4;BLUME;Natur;q;1;2;22;12;q;1;0.864340899977833;002;JWEE96x;2019_Dec_13_1633;iat_vr;59.97379147000072;
4;HERVORRAGEND;positiv;p;1;3;23;7;p;1;0.6456503000226803;002;JWEE96x;2019_Dec_13_1633;iat_vr;59.97379147000072;
4;GEBÄUDE;Gemacht;p;1;4;24;15;p;1;0.7767353999661282;002;JWEE96x;2019_Dec_13_1633;iat_vr;59.97379147000072;
4;STADT;Gemacht;p;1;5;25;16;p;1;0.577354800014291;002;JWEE96x;2019_Dec_13_1633;iat_vr;59.97379147000072;
4;SCHÄDLICH;negativ;q;1;6;26;3;q;1;0.8140455999528058;002;JWEE96x;2019_Dec_13_1633;iat_vr;59.97379147000072;
4;NEGATIV;negativ;q;1;7;27;2;q;1;0.6149406000040472;002;JWEE96x;2019_Dec_13_1633;iat_vr;59.97379147000072;
4;TIER;Natur;q;1;8;28;13;q;1;0.5434461000259034;002;JWEE96x;2019_Dec_13_1633;iat_vr;59.97379147000072;
4;COMPUTER;Gemacht;p;1;9;29;18;p;1;0.6421885999734513;002;JWEE96x;2019_Dec_13_1633;iat_vr;59.97379147000072;
4;GUT;positiv;p;1;10;30;9;q;0;0.983080499980133;002;JWEE96x;2019_Dec_13_1633;iat_vr;59.97379147000072;
4;SCHLECHT;negativ;q;1;11;31;1;p;0;0.6290625999681652;002;JWEE96x;2019_Dec_13_1633;iat_vr;59.97379147000072;
4;BAUM;Natur;q;1;12;32;10;q;1;1.4822053999523632;002;JWEE96x;2019_Dec_13_1633;iat_vr;59.97379147000072;
4;KLEIDER;Gemacht;p;1;13;33;17;p;1;0.6798073999816552;002;JWEE96x;2019_Dec_13_1633;iat_vr;59.97379147000072;
4;EINWANDFREI;positiv;p;1;14;34;6;p;1;1.4130047999788076;002;JWEE96x;2019_Dec_13_1633;iat_vr;59.97379147000072;
4;POSITIV;positiv;p;1;15;35;8;p;1;0.5479461000068113;002;JWEE96x;2019_Dec_13_1633;iat_vr;59.97379147000072;
4;AUSGEZEICHNET;positiv;p;1;16;36;5;p;1;0.8439813000150025;002;JWEE96x;2019_Dec_13_1633;iat_vr;59.97379147000072;
4;SCHWACH;negativ;q;1;17;37;4;q;1;0.7136961999931373;002;JWEE96x;2019_Dec_13_1633;iat_vr;59.97379147000072;
4;WASSER;Natur;q;1;18;38;11;q;1;0.3984026000252925;002;JWEE96x;2019_Dec_13_1633;iat_vr;59.97379147000072;
4;SCHLIMM;negativ;q;1;19;39;0;q;1;0.5149131999933161;002;JWEE96x;2019_Dec_13_1633;iat_vr;59.97379147000072;
;;;;;;;;;;;002;JWEE96x;2019_Dec_13_1633;iat_vr;59.97379147000072;
5;COMPUTER;Gemacht;q;0;0;0;8;q;1;1.0542728999862447;002;JWEE96x;2019_Dec_13_1633;iat_vr;59.97379147000072;
5;KLEIDER;Gemacht;q;0;1;1;7;q;1;1.1651953000109643;002;JWEE96x;2019_Dec_13_1633;iat_vr;59.97379147000072;
5;WASSER;Natur;p;0;2;2;1;p;1;0.6313498999807052;002;JWEE96x;2019_Dec_13_1633;iat_vr;59.97379147000072;
5;BAUM;Natur;p;0;3;3;0;p;1;0.5647609999869019;002;JWEE96x;2019_Dec_13_1633;iat_vr;59.97379147000072;
5;STADT;Gemacht;q;0;4;4;6;q;1;1.0817344000097364;002;JWEE96x;2019_Dec_13_1633;iat_vr;59.97379147000072;
5;BLUME;Natur;p;0;5;5;2;p;1;0.7155682999873534;002;JWEE96x;2019_Dec_13_1633;iat_vr;59.97379147000072;
5;GEBÄUDE;Gemacht;q;0;6;6;5;q;1;2.0138770999619737;002;JWEE96x;2019_Dec_13_1633;iat_vr;59.97379147000072;
5;TIER;Natur;p;0;7;7;3;p;1;1.096081099996809;002;JWEE96x;2019_Dec_13_1633;iat_vr;59.97379147000072;
5;STEIN;Natur;p;0;8;8;4;p;1;2.5220999000011943;002;JWEE96x;2019_Dec_13_1633;iat_vr;59.97379147000072;
5;LAMPE;Gemacht;q;0;9;9;9;p;0;0.41476789995795116;002;JWEE96x;2019_Dec_13_1633;iat_vr;59.97379147000072;
5;KLEIDER;Gemacht;q;1;0;10;7;q;1;1.6555939000099897;002;JWEE96x;2019_Dec_13_1633;iat_vr;59.97379147000072;
5;BLUME;Natur;p;1;1;11;2;p;1;1.9648275999934413;002;JWEE96x;2019_Dec_13_1633;iat_vr;59.97379147000072;
5;STADT;Gemacht;q;1;2;12;6;p;0;0.39699300000211224;002;JWEE96x;2019_Dec_13_1633;iat_vr;59.97379147000072;
5;GEBÄUDE;Gemacht;q;1;3;13;5;p;0;0.681685000017751;002;JWEE96x;2019_Dec_13_1633;iat_vr;59.97379147000072;
5;STEIN;Natur;p;1;4;14;4;p;1;2.260434099996928;002;JWEE96x;2019_Dec_13_1633;iat_vr;59.97379147000072;
5;WASSER;Natur;p;1;5;15;1;p;1;0.5138974000001326;002;JWEE96x;2019_Dec_13_1633;iat_vr;59.97379147000072;
5;LAMPE;Gemacht;q;1;6;16;9;p;0;0.39629219996277243;002;JWEE96x;2019_Dec_13_1633;iat_vr;59.97379147000072;
5;COMPUTER;Gemacht;q;1;7;17;8;q;1;0.9299808000214398;002;JWEE96x;2019_Dec_13_1633;iat_vr;59.97379147000072;
5;TIER;Natur;p;1;8;18;3;p;1;0.9825305999838747;002;JWEE96x;2019_Dec_13_1633;iat_vr;59.97379147000072;
5;BAUM;Natur;p;1;9;19;0;p;1;0.6148725000093691;002;JWEE96x;2019_Dec_13_1633;iat_vr;59.97379147000072;
;;;;;;;;;;;002;JWEE96x;2019_Dec_13_1633;iat_vr;59.97379147000072;
6;SCHWACH;negativ;q;0;0;0;14;q;1;1.2576406999723986;002;JWEE96x;2019_Dec_13_1633;iat_vr;59.97379147000072;
6;AUSGEZEICHNET;positiv;p;0;1;1;15;p;1;0.7263093999936245;002;JWEE96x;2019_Dec_13_1633;iat_vr;59.97379147000072;
6;NEGATIV;negativ;q;0;2;2;12;q;1;0.5401459999848157;002;JWEE96x;2019_Dec_13_1633;iat_vr;59.97379147000072;
6;STADT;Gemacht;q;0;3;3;6;p;0;0.5982519999961369;002;JWEE96x;2019_Dec_13_1633;iat_vr;59.97379147000072;
6;STEIN;Natur;p;0;4;4;4;p;1;1.2637101000291295;002;JWEE96x;2019_Dec_13_1633;iat_vr;59.97379147000072;
6;BAUM;Natur;p;0;5;5;0;p;1;0.5162790000322275;002;JWEE96x;2019_Dec_13_1633;iat_vr;59.97379147000072;
6;GUT;positiv;p;0;6;6;19;p;1;0.4662817000062205;002;JWEE96x;2019_Dec_13_1633;iat_vr;59.97379147000072;
6;GEBÄUDE;Gemacht;q;0;7;7;5;q;1;0.5967898000380956;002;JWEE96x;2019_Dec_13_1633;iat_vr;59.97379147000072;
6;EINWANDFREI;positiv;p;0;8;8;16;p;1;0.6783730000024661;002;JWEE96x;2019_Dec_13_1633;iat_vr;59.97379147000072;
6;HERVORRAGEND;positiv;p;0;9;9;17;p;1;0.4622180999722332;002;JWEE96x;2019_Dec_13_1633;iat_vr;59.97379147000072;
6;POSITIV;positiv;p;0;10;10;18;p;1;0.43182870000600815;002;JWEE96x;2019_Dec_13_1633;iat_vr;59.97379147000072;
6;BLUME;Natur;p;0;11;11;2;p;1;0.5988845999818295;002;JWEE96x;2019_Dec_13_1633;iat_vr;59.97379147000072;
6;SCHÄDLICH;negativ;q;0;12;12;13;q;1;0.5430163000128232;002;JWEE96x;2019_Dec_13_1633;iat_vr;59.97379147000072;
6;COMPUTER;Gemacht;q;0;13;13;8;q;1;0.5971327000297606;002;JWEE96x;2019_Dec_13_1633;iat_vr;59.97379147000072;
6;TIER;Natur;p;0;14;14;3;p;1;0.6308919999864884;002;JWEE96x;2019_Dec_13_1633;iat_vr;59.97379147000072;
6;WASSER;Natur;p;0;15;15;1;p;1;1.0608081999816932;002;JWEE96x;2019_Dec_13_1633;iat_vr;59.97379147000072;
6;KLEIDER;Gemacht;q;0;16;16;7;q;1;0.6900535000022501;002;JWEE96x;2019_Dec_13_1633;iat_vr;59.97379147000072;
6;SCHLIMM;negativ;q;0;17;17;10;q;1;1.6979128000093624;002;JWEE96x;2019_Dec_13_1633;iat_vr;59.97379147000072;
6;SCHLECHT;negativ;q;0;18;18;11;q;1;0.5143792000017129;002;JWEE96x;2019_Dec_13_1633;iat_vr;59.97379147000072;
6;LAMPE;Gemacht;q;0;19;19;9;p;0;0.5764521000091918;002;JWEE96x;2019_Dec_13_1633;iat_vr;59.97379147000072;
;;;;;;;;;;;002;JWEE96x;2019_Dec_13_1633;iat_vr;59.97379147000072;
7;BLUME;Natur;p;0;0;0;2;p;1;1.430499099951703;002;JWEE96x;2019_Dec_13_1633;iat_vr;59.97379147000072;
7;SCHLIMM;negativ;q;0;1;1;10;q;1;1.8131817000103183;002;JWEE96x;2019_Dec_13_1633;iat_vr;59.97379147000072;
7;WASSER;Natur;p;0;2;2;1;p;1;1.2152471999870613;002;JWEE96x;2019_Dec_13_1633;iat_vr;59.97379147000072;
7;LAMPE;Gemacht;q;0;3;3;9;q;1;0.7228355999686755;002;JWEE96x;2019_Dec_13_1633;iat_vr;59.97379147000072;
7;COMPUTER;Gemacht;q;0;4;4;8;q;1;0.8454840000486001;002;JWEE96x;2019_Dec_13_1633;iat_vr;59.97379147000072;
7;STEIN;Natur;p;0;5;5;4;p;1;0.7810937999747694;002;JWEE96x;2019_Dec_13_1633;iat_vr;59.97379147000072;
7;SCHLECHT;negativ;q;0;6;6;11;p;0;0.49758180003846064;002;JWEE96x;2019_Dec_13_1633;iat_vr;59.97379147000072;
7;BAUM;Natur;p;0;7;7;0;p;1;1.8999602999538183;002;JWEE96x;2019_Dec_13_1633;iat_vr;59.97379147000072;
7;TIER;Natur;p;0;8;8;3;p;1;0.39297739998437464;002;JWEE96x;2019_Dec_13_1633;iat_vr;59.97379147000072;
7;SCHWACH;negativ;q;0;9;9;14;q;1;0.7810917000169866;002;JWEE96x;2019_Dec_13_1633;iat_vr;59.97379147000072;
7;AUSGEZEICHNET;positiv;p;0;10;10;15;p;1;0.5602012999588624;002;JWEE96x;2019_Dec_13_1633;iat_vr;59.97379147000072;
7;GEBÄUDE;Gemacht;q;0;11;11;5;q;1;0.7470409999950789;002;JWEE96x;2019_Dec_13_1633;iat_vr;59.97379147000072;
7;STADT;Gemacht;q;0;12;12;6;q;1;0.6139867000165395;002;JWEE96x;2019_Dec_13_1633;iat_vr;59.97379147000072;
7;NEGATIV;negativ;q;0;13;13;12;q;1;0.8252444000099786;002;JWEE96x;2019_Dec_13_1633;iat_vr;59.97379147000072;
7;EINWANDFREI;positiv;p;0;14;14;16;p;1;1.0306505999760702;002;JWEE96x;2019_Dec_13_1633;iat_vr;59.97379147000072;
7;POSITIV;positiv;p;0;15;15;18;p;1;0.598126000026241;002;JWEE96x;2019_Dec_13_1633;iat_vr;59.97379147000072;
7;HERVORRAGEND;positiv;p;0;16;16;17;p;1;0.5138695000205189;002;JWEE96x;2019_Dec_13_1633;iat_vr;59.97379147000072;
7;KLEIDER;Gemacht;q;0;17;17;7;q;1;0.948474700038787;002;JWEE96x;2019_Dec_13_1633;iat_vr;59.97379147000072;
7;SCHÄDLICH;negativ;q;0;18;18;13;p;0;0.7467849000240676;002;JWEE96x;2019_Dec_13_1633;iat_vr;59.97379147000072;
7;GUT;positiv;p;0;19;19;19;p;1;0.7170293000526726;002;JWEE96x;2019_Dec_13_1633;iat_vr;59.97379147000072;
7;STADT;Gemacht;q;1;0;20;6;q;1;0.5972447000094689;002;JWEE96x;2019_Dec_13_1633;iat_vr;59.97379147000072;
7;NEGATIV;negativ;q;1;1;21;12;q;1;2.4467431000084616;002;JWEE96x;2019_Dec_13_1633;iat_vr;59.97379147000072;
7;SCHWACH;negativ;q;1;2;22;14;q;1;0.9658411999698728;002;JWEE96x;2019_Dec_13_1633;iat_vr;59.97379147000072;
7;LAMPE;Gemacht;q;1;3;23;9;q;1;0.6481634000083432;002;JWEE96x;2019_Dec_13_1633;iat_vr;59.97379147000072;
7;WASSER;Natur;p;1;4;24;1;p;1;0.5819870999548584;002;JWEE96x;2019_Dec_13_1633;iat_vr;59.97379147000072;
7;AUSGEZEICHNET;positiv;p;1;5;25;15;p;1;0.8459222000092268;002;JWEE96x;2019_Dec_13_1633;iat_vr;59.97379147000072;
7;GUT;positiv;p;1;6;26;19;p;1;0.5831589999725111;002;JWEE96x;2019_Dec_13_1633;iat_vr;59.97379147000072;
7;SCHÄDLICH;negativ;q;1;7;27;13;q;1;0.9936112000141293;002;JWEE96x;2019_Dec_13_1633;iat_vr;59.97379147000072;
7;STEIN;Natur;p;1;8;28;4;p;1;0.9465409999829717;002;JWEE96x;2019_Dec_13_1633;iat_vr;59.97379147000072;
7;HERVORRAGEND;positiv;p;1;9;29;17;p;1;0.6718109999783337;002;JWEE96x;2019_Dec_13_1633;iat_vr;59.97379147000072;
7;BAUM;Natur;p;1;10;30;0;p;1;0.5982978999963962;002;JWEE96x;2019_Dec_13_1633;iat_vr;59.97379147000072;
7;EINWANDFREI;positiv;p;1;11;31;16;p;1;0.5437961000134237;002;JWEE96x;2019_Dec_13_1633;iat_vr;59.97379147000072;
7;KLEIDER;Gemacht;q;1;12;32;7;q;1;0.5575392000027932;002;JWEE96x;2019_Dec_13_1633;iat_vr;59.97379147000072;
7;BLUME;Natur;p;1;13;33;2;p;1;0.7492544999695383;002;JWEE96x;2019_Dec_13_1633;iat_vr;59.97379147000072;
7;GEBÄUDE;Gemacht;q;1;14;34;5;q;1;0.6465410999953747;002;JWEE96x;2019_Dec_13_1633;iat_vr;59.97379147000072;
7;SCHLIMM;negativ;q;1;15;35;10;q;1;0.5514719999628142;002;JWEE96x;2019_Dec_13_1633;iat_vr;59.97379147000072;
7;POSITIV;positiv;p;1;16;36;18;p;1;0.5481677000061609;002;JWEE96x;2019_Dec_13_1633;iat_vr;59.97379147000072;
7;COMPUTER;Gemacht;q;1;17;37;8;q;1;0.9971958000096492;002;JWEE96x;2019_Dec_13_1633;iat_vr;59.97379147000072;
7;TIER;Natur;p;1;18;38;3;p;1;0.5995569000369869;002;JWEE96x;2019_Dec_13_1633;iat_vr;59.97379147000072;
7;SCHLECHT;negativ;q;1;19;39;11;q;1;0.628009199979715;002;JWEE96x;2019_Dec_13_1633;iat_vr;59.97379147000072;
;;;;;;;;;;;002;JWEE96x;2019_Dec_13_1633;iat_vr;59.97379147000072;
