Block;Word;Category;CorrResp;trials.thisRepN;trials.thisTrialN;trials.thisN;trials.thisIndex;key_resp_2.keys;key_resp_2.corr;key_resp_2.rt;session;participant;date;expName;frameRate;
1;LAMPE;Gemacht;p;0;0;0;9;p;1;2.633648600021843;002;JWES98x;2019_Dec_11_1612;iat_vr;60.18538301655544;
1;COMPUTER;Gemacht;p;0;1;1;8;p;1;0.7308983999828342;002;JWES98x;2019_Dec_11_1612;iat_vr;60.18538301655544;
1;GEBÄUDE;Gemacht;p;0;2;2;5;p;1;0.7071833000227343;002;JWES98x;2019_Dec_11_1612;iat_vr;60.18538301655544;
1;STEIN;Natur;q;0;3;3;4;q;1;0.6707773999951314;002;JWES98x;2019_Dec_11_1612;iat_vr;60.18538301655544;
1;BLUME;Natur;q;0;4;4;2;q;1;0.6984538999968208;002;JWES98x;2019_Dec_11_1612;iat_vr;60.18538301655544;
1;KLEIDER;Gemacht;p;0;5;5;7;p;1;0.6913282999885269;002;JWES98x;2019_Dec_11_1612;iat_vr;60.18538301655544;
1;WASSER;Natur;q;0;6;6;1;q;1;0.6103541000047699;002;JWES98x;2019_Dec_11_1612;iat_vr;60.18538301655544;
1;STADT;Gemacht;p;0;7;7;6;p;1;0.6807002999994438;002;JWES98x;2019_Dec_11_1612;iat_vr;60.18538301655544;
1;BAUM;Natur;q;0;8;8;0;q;1;0.6492476999992505;002;JWES98x;2019_Dec_11_1612;iat_vr;60.18538301655544;
1;TIER;Natur;q;0;9;9;3;q;1;0.8204570000234526;002;JWES98x;2019_Dec_11_1612;iat_vr;60.18538301655544;
1;LAMPE;Gemacht;p;1;0;10;9;p;1;2.130204600020079;002;JWES98x;2019_Dec_11_1612;iat_vr;60.18538301655544;
1;GEBÄUDE;Gemacht;p;1;1;11;5;p;1;0.5993914999999106;002;JWES98x;2019_Dec_11_1612;iat_vr;60.18538301655544;
1;KLEIDER;Gemacht;p;1;2;12;7;p;1;2.0619809000054374;002;JWES98x;2019_Dec_11_1612;iat_vr;60.18538301655544;
1;STADT;Gemacht;p;1;3;13;6;p;1;1.2817063000111375;002;JWES98x;2019_Dec_11_1612;iat_vr;60.18538301655544;
1;BLUME;Natur;q;1;4;14;2;q;1;0.5650695000076666;002;JWES98x;2019_Dec_11_1612;iat_vr;60.18538301655544;
1;TIER;Natur;q;1;5;15;3;q;1;1.1323879999981727;002;JWES98x;2019_Dec_11_1612;iat_vr;60.18538301655544;
1;STEIN;Natur;q;1;6;16;4;q;1;1.5308273999835365;002;JWES98x;2019_Dec_11_1612;iat_vr;60.18538301655544;
1;WASSER;Natur;q;1;7;17;1;q;1;0.6152053000114392;002;JWES98x;2019_Dec_11_1612;iat_vr;60.18538301655544;
1;BAUM;Natur;q;1;8;18;0;q;1;0.9181896999944001;002;JWES98x;2019_Dec_11_1612;iat_vr;60.18538301655544;
1;COMPUTER;Gemacht;p;1;9;19;8;p;1;0.7349251999985427;002;JWES98x;2019_Dec_11_1612;iat_vr;60.18538301655544;
;;;;;;;;;;;002;JWES98x;2019_Dec_11_1612;iat_vr;60.18538301655544;
2;SCHLECHT;negativ;q;0;0;0;1;q;1;1.05333310001879;002;JWES98x;2019_Dec_11_1612;iat_vr;60.18538301655544;
2;GUT;positiv;p;0;1;1;9;p;1;0.5804804999788757;002;JWES98x;2019_Dec_11_1612;iat_vr;60.18538301655544;
2;SCHÄDLICH;negativ;q;0;2;2;3;q;1;0.7620629000011832;002;JWES98x;2019_Dec_11_1612;iat_vr;60.18538301655544;
2;EINWANDFREI;positiv;p;0;3;3;6;p;1;0.7524540000013076;002;JWES98x;2019_Dec_11_1612;iat_vr;60.18538301655544;
2;SCHWACH;negativ;q;0;4;4;4;q;1;0.6646720999851823;002;JWES98x;2019_Dec_11_1612;iat_vr;60.18538301655544;
2;SCHLIMM;negativ;q;0;5;5;0;q;1;0.7956232999858912;002;JWES98x;2019_Dec_11_1612;iat_vr;60.18538301655544;
2;HERVORRAGEND;positiv;p;0;6;6;7;p;1;0.5206560000078753;002;JWES98x;2019_Dec_11_1612;iat_vr;60.18538301655544;
2;AUSGEZEICHNET;positiv;p;0;7;7;5;p;1;0.42407189999357797;002;JWES98x;2019_Dec_11_1612;iat_vr;60.18538301655544;
2;NEGATIV;negativ;q;0;8;8;2;q;1;0.5625553999852855;002;JWES98x;2019_Dec_11_1612;iat_vr;60.18538301655544;
2;POSITIV;positiv;p;0;9;9;8;p;1;0.5138905000058003;002;JWES98x;2019_Dec_11_1612;iat_vr;60.18538301655544;
2;HERVORRAGEND;positiv;p;1;0;10;7;p;1;0.5690563000098336;002;JWES98x;2019_Dec_11_1612;iat_vr;60.18538301655544;
2;EINWANDFREI;positiv;p;1;1;11;6;p;1;0.6441187000018544;002;JWES98x;2019_Dec_11_1612;iat_vr;60.18538301655544;
2;GUT;positiv;p;1;2;12;9;p;1;0.5806600000069011;002;JWES98x;2019_Dec_11_1612;iat_vr;60.18538301655544;
2;POSITIV;positiv;p;1;3;13;8;p;1;0.5637525000202004;002;JWES98x;2019_Dec_11_1612;iat_vr;60.18538301655544;
2;SCHWACH;negativ;q;1;4;14;4;q;1;0.61198489999515;002;JWES98x;2019_Dec_11_1612;iat_vr;60.18538301655544;
2;SCHÄDLICH;negativ;q;1;5;15;3;q;1;0.6620025000011083;002;JWES98x;2019_Dec_11_1612;iat_vr;60.18538301655544;
2;SCHLIMM;negativ;q;1;6;16;0;q;1;0.5806945999793243;002;JWES98x;2019_Dec_11_1612;iat_vr;60.18538301655544;
2;NEGATIV;negativ;q;1;7;17;2;q;1;0.6919023999944329;002;JWES98x;2019_Dec_11_1612;iat_vr;60.18538301655544;
2;AUSGEZEICHNET;positiv;p;1;8;18;5;p;1;0.5936101000115741;002;JWES98x;2019_Dec_11_1612;iat_vr;60.18538301655544;
2;SCHLECHT;negativ;q;1;9;19;1;q;1;0.5631209000130184;002;JWES98x;2019_Dec_11_1612;iat_vr;60.18538301655544;
;;;;;;;;;;;002;JWES98x;2019_Dec_11_1612;iat_vr;60.18538301655544;
3;EINWANDFREI;positiv;p;0;0;0;6;p;1;0.9351528999977745;002;JWES98x;2019_Dec_11_1612;iat_vr;60.18538301655544;
3;COMPUTER;Gemacht;p;0;1;1;18;p;1;1.293686399993021;002;JWES98x;2019_Dec_11_1612;iat_vr;60.18538301655544;
3;KLEIDER;Gemacht;p;0;2;2;17;p;1;0.6354674000176601;002;JWES98x;2019_Dec_11_1612;iat_vr;60.18538301655544;
3;SCHÄDLICH;negativ;q;0;3;3;3;q;1;1.0302426000125706;002;JWES98x;2019_Dec_11_1612;iat_vr;60.18538301655544;
3;SCHLECHT;negativ;q;0;4;4;1;q;1;0.6121667000115849;002;JWES98x;2019_Dec_11_1612;iat_vr;60.18538301655544;
3;AUSGEZEICHNET;positiv;p;0;5;5;5;p;1;0.7759923999838065;002;JWES98x;2019_Dec_11_1612;iat_vr;60.18538301655544;
3;BLUME;Natur;q;0;6;6;12;q;1;1.2982567999861203;002;JWES98x;2019_Dec_11_1612;iat_vr;60.18538301655544;
3;NEGATIV;negativ;q;0;7;7;2;q;1;0.7313293000042904;002;JWES98x;2019_Dec_11_1612;iat_vr;60.18538301655544;
3;GEBÄUDE;Gemacht;p;0;8;8;15;p;1;0.8645099000132177;002;JWES98x;2019_Dec_11_1612;iat_vr;60.18538301655544;
3;GUT;positiv;p;0;9;9;9;p;1;0.7983592000091448;002;JWES98x;2019_Dec_11_1612;iat_vr;60.18538301655544;
3;LAMPE;Gemacht;p;0;10;10;19;p;1;0.8986819999990985;002;JWES98x;2019_Dec_11_1612;iat_vr;60.18538301655544;
3;POSITIV;positiv;p;0;11;11;8;p;1;0.530013899988262;002;JWES98x;2019_Dec_11_1612;iat_vr;60.18538301655544;
3;SCHLIMM;negativ;q;0;12;12;0;q;1;0.6860498000169173;002;JWES98x;2019_Dec_11_1612;iat_vr;60.18538301655544;
3;STADT;Gemacht;p;0;13;13;16;p;1;1.4315966999856755;002;JWES98x;2019_Dec_11_1612;iat_vr;60.18538301655544;
3;TIER;Natur;q;0;14;14;13;q;1;0.7313201999932062;002;JWES98x;2019_Dec_11_1612;iat_vr;60.18538301655544;
3;BAUM;Natur;q;0;15;15;10;q;1;0.8840230000205338;002;JWES98x;2019_Dec_11_1612;iat_vr;60.18538301655544;
3;HERVORRAGEND;positiv;p;0;16;16;7;p;1;0.8271533999941312;002;JWES98x;2019_Dec_11_1612;iat_vr;60.18538301655544;
3;STEIN;Natur;q;0;17;17;14;p;0;1.0155631999950856;002;JWES98x;2019_Dec_11_1612;iat_vr;60.18538301655544;
3;WASSER;Natur;q;0;18;18;11;q;1;1.1963190000096802;002;JWES98x;2019_Dec_11_1612;iat_vr;60.18538301655544;
3;SCHWACH;negativ;q;0;19;19;4;q;1;1.7271075999888126;002;JWES98x;2019_Dec_11_1612;iat_vr;60.18538301655544;
;;;;;;;;;;;002;JWES98x;2019_Dec_11_1612;iat_vr;60.18538301655544;
4;STEIN;Natur;q;0;0;0;14;q;1;1.507263100007549;002;JWES98x;2019_Dec_11_1612;iat_vr;60.18538301655544;
4;SCHLIMM;negativ;q;0;1;1;0;q;1;0.8967484999739099;002;JWES98x;2019_Dec_11_1612;iat_vr;60.18538301655544;
4;STADT;Gemacht;p;0;2;2;16;p;1;1.4651826999906916;002;JWES98x;2019_Dec_11_1612;iat_vr;60.18538301655544;
4;LAMPE;Gemacht;p;0;3;3;19;p;1;0.6468352999945637;002;JWES98x;2019_Dec_11_1612;iat_vr;60.18538301655544;
4;SCHÄDLICH;negativ;q;0;4;4;3;q;1;1.8953785999910906;002;JWES98x;2019_Dec_11_1612;iat_vr;60.18538301655544;
4;COMPUTER;Gemacht;p;0;5;5;18;p;1;1.0472594000166282;002;JWES98x;2019_Dec_11_1612;iat_vr;60.18538301655544;
4;BAUM;Natur;q;0;6;6;10;q;1;1.7648812000115868;002;JWES98x;2019_Dec_11_1612;iat_vr;60.18538301655544;
4;GEBÄUDE;Gemacht;p;0;7;7;15;p;1;0.9472200000018347;002;JWES98x;2019_Dec_11_1612;iat_vr;60.18538301655544;
4;NEGATIV;negativ;q;0;8;8;2;q;1;1.1465912999992725;002;JWES98x;2019_Dec_11_1612;iat_vr;60.18538301655544;
4;TIER;Natur;q;0;9;9;13;q;1;1.198964100010926;002;JWES98x;2019_Dec_11_1612;iat_vr;60.18538301655544;
4;BLUME;Natur;q;0;10;10;12;q;1;0.6478387999814004;002;JWES98x;2019_Dec_11_1612;iat_vr;60.18538301655544;
4;KLEIDER;Gemacht;p;0;11;11;17;p;1;1.212868000002345;002;JWES98x;2019_Dec_11_1612;iat_vr;60.18538301655544;
4;POSITIV;positiv;p;0;12;12;8;p;1;0.5324577999999747;002;JWES98x;2019_Dec_11_1612;iat_vr;60.18538301655544;
4;HERVORRAGEND;positiv;p;0;13;13;7;p;1;0.5608921000093687;002;JWES98x;2019_Dec_11_1612;iat_vr;60.18538301655544;
4;GUT;positiv;p;0;14;14;9;p;1;0.548919399996521;002;JWES98x;2019_Dec_11_1612;iat_vr;60.18538301655544;
4;SCHLECHT;negativ;q;0;15;15;1;q;1;0.6594164000125602;002;JWES98x;2019_Dec_11_1612;iat_vr;60.18538301655544;
4;EINWANDFREI;positiv;p;0;16;16;6;p;1;0.8952852000074927;002;JWES98x;2019_Dec_11_1612;iat_vr;60.18538301655544;
4;WASSER;Natur;q;0;17;17;11;p;0;2.7805529999895953;002;JWES98x;2019_Dec_11_1612;iat_vr;60.18538301655544;
4;SCHWACH;negativ;q;0;18;18;4;q;1;0.9979917000164278;002;JWES98x;2019_Dec_11_1612;iat_vr;60.18538301655544;
4;AUSGEZEICHNET;positiv;p;0;19;19;5;p;1;0.9614154000009876;002;JWES98x;2019_Dec_11_1612;iat_vr;60.18538301655544;
4;GEBÄUDE;Gemacht;p;1;0;20;15;p;1;1.7471310000109952;002;JWES98x;2019_Dec_11_1612;iat_vr;60.18538301655544;
4;GUT;positiv;p;1;1;21;9;p;1;1.0830504999903496;002;JWES98x;2019_Dec_11_1612;iat_vr;60.18538301655544;
4;SCHLIMM;negativ;q;1;2;22;0;q;1;0.6632189000083599;002;JWES98x;2019_Dec_11_1612;iat_vr;60.18538301655544;
4;AUSGEZEICHNET;positiv;p;1;3;23;5;p;1;0.7764600999944378;002;JWES98x;2019_Dec_11_1612;iat_vr;60.18538301655544;
4;EINWANDFREI;positiv;p;1;4;24;6;p;1;0.694288200000301;002;JWES98x;2019_Dec_11_1612;iat_vr;60.18538301655544;
4;POSITIV;positiv;p;1;5;25;8;p;1;0.652688300004229;002;JWES98x;2019_Dec_11_1612;iat_vr;60.18538301655544;
4;STEIN;Natur;q;1;6;26;14;q;1;1.3151742999907583;002;JWES98x;2019_Dec_11_1612;iat_vr;60.18538301655544;
4;STADT;Gemacht;p;1;7;27;16;p;1;0.7981132999993861;002;JWES98x;2019_Dec_11_1612;iat_vr;60.18538301655544;
4;LAMPE;Gemacht;p;1;8;28;19;p;1;1.184458600007929;002;JWES98x;2019_Dec_11_1612;iat_vr;60.18538301655544;
4;NEGATIV;negativ;q;1;9;29;2;q;1;0.7817400000058115;002;JWES98x;2019_Dec_11_1612;iat_vr;60.18538301655544;
4;KLEIDER;Gemacht;p;1;10;30;17;p;1;1.0302076000079978;002;JWES98x;2019_Dec_11_1612;iat_vr;60.18538301655544;
4;TIER;Natur;q;1;11;31;13;q;1;0.879973599978257;002;JWES98x;2019_Dec_11_1612;iat_vr;60.18538301655544;
4;COMPUTER;Gemacht;p;1;12;32;18;p;1;0.8460415000154171;002;JWES98x;2019_Dec_11_1612;iat_vr;60.18538301655544;
4;BLUME;Natur;q;1;13;33;12;q;1;0.7145705000148155;002;JWES98x;2019_Dec_11_1612;iat_vr;60.18538301655544;
4;WASSER;Natur;q;1;14;34;11;q;1;0.9146386000211351;002;JWES98x;2019_Dec_11_1612;iat_vr;60.18538301655544;
4;SCHÄDLICH;negativ;q;1;15;35;3;q;1;0.9246793999918737;002;JWES98x;2019_Dec_11_1612;iat_vr;60.18538301655544;
4;SCHLECHT;negativ;q;1;16;36;1;q;1;0.7942655000078958;002;JWES98x;2019_Dec_11_1612;iat_vr;60.18538301655544;
4;HERVORRAGEND;positiv;p;1;17;37;7;p;1;1.2293661000148859;002;JWES98x;2019_Dec_11_1612;iat_vr;60.18538301655544;
4;BAUM;Natur;q;1;18;38;10;p;0;0.8837954000046011;002;JWES98x;2019_Dec_11_1612;iat_vr;60.18538301655544;
4;SCHWACH;negativ;q;1;19;39;4;q;1;0.7636246999900322;002;JWES98x;2019_Dec_11_1612;iat_vr;60.18538301655544;
;;;;;;;;;;;002;JWES98x;2019_Dec_11_1612;iat_vr;60.18538301655544;
5;BLUME;Natur;p;0;0;0;2;p;1;0.8359372999984771;002;JWES98x;2019_Dec_11_1612;iat_vr;60.18538301655544;
5;STEIN;Natur;p;0;1;1;4;p;1;1.065654700010782;002;JWES98x;2019_Dec_11_1612;iat_vr;60.18538301655544;
5;WASSER;Natur;p;0;2;2;1;p;1;0.5456647999817505;002;JWES98x;2019_Dec_11_1612;iat_vr;60.18538301655544;
5;BAUM;Natur;p;0;3;3;0;p;1;0.7322425999736879;002;JWES98x;2019_Dec_11_1612;iat_vr;60.18538301655544;
5;GEBÄUDE;Gemacht;q;0;4;4;5;q;1;0.5649977000139188;002;JWES98x;2019_Dec_11_1612;iat_vr;60.18538301655544;
5;LAMPE;Gemacht;q;0;5;5;9;q;1;0.48163200000999495;002;JWES98x;2019_Dec_11_1612;iat_vr;60.18538301655544;
5;STADT;Gemacht;q;0;6;6;6;q;1;0.6475388999970164;002;JWES98x;2019_Dec_11_1612;iat_vr;60.18538301655544;
5;KLEIDER;Gemacht;q;0;7;7;7;q;1;0.6469865000108257;002;JWES98x;2019_Dec_11_1612;iat_vr;60.18538301655544;
5;TIER;Natur;p;0;8;8;3;p;1;0.7825353000080213;002;JWES98x;2019_Dec_11_1612;iat_vr;60.18538301655544;
5;COMPUTER;Gemacht;q;0;9;9;8;q;1;0.7797269999864511;002;JWES98x;2019_Dec_11_1612;iat_vr;60.18538301655544;
5;STADT;Gemacht;q;1;0;10;6;q;1;0.9819011999934446;002;JWES98x;2019_Dec_11_1612;iat_vr;60.18538301655544;
5;COMPUTER;Gemacht;q;1;1;11;8;q;1;0.9302190000016708;002;JWES98x;2019_Dec_11_1612;iat_vr;60.18538301655544;
5;STEIN;Natur;p;1;2;12;4;p;1;0.6824126999999862;002;JWES98x;2019_Dec_11_1612;iat_vr;60.18538301655544;
5;LAMPE;Gemacht;q;1;3;13;9;q;1;0.7478505999897607;002;JWES98x;2019_Dec_11_1612;iat_vr;60.18538301655544;
5;BAUM;Natur;p;1;4;14;0;p;1;0.4821120999986306;002;JWES98x;2019_Dec_11_1612;iat_vr;60.18538301655544;
5;KLEIDER;Gemacht;q;1;5;15;7;p;0;0.49459360001492314;002;JWES98x;2019_Dec_11_1612;iat_vr;60.18538301655544;
5;WASSER;Natur;p;1;6;16;1;p;1;0.6480118999897968;002;JWES98x;2019_Dec_11_1612;iat_vr;60.18538301655544;
5;GEBÄUDE;Gemacht;q;1;7;17;5;q;1;0.8130304000223987;002;JWES98x;2019_Dec_11_1612;iat_vr;60.18538301655544;
5;TIER;Natur;p;1;8;18;3;p;1;0.8646687000000384;002;JWES98x;2019_Dec_11_1612;iat_vr;60.18538301655544;
5;BLUME;Natur;p;1;9;19;2;p;1;0.6488753999874461;002;JWES98x;2019_Dec_11_1612;iat_vr;60.18538301655544;
;;;;;;;;;;;002;JWES98x;2019_Dec_11_1612;iat_vr;60.18538301655544;
6;EINWANDFREI;positiv;p;0;0;0;16;p;1;0.8947707999905106;002;JWES98x;2019_Dec_11_1612;iat_vr;60.18538301655544;
6;BAUM;Natur;p;0;1;1;0;p;1;0.9492102999938652;002;JWES98x;2019_Dec_11_1612;iat_vr;60.18538301655544;
6;POSITIV;positiv;p;0;2;2;18;p;1;0.6478138999955263;002;JWES98x;2019_Dec_11_1612;iat_vr;60.18538301655544;
6;SCHLIMM;negativ;q;0;3;3;10;q;1;0.7121525999973528;002;JWES98x;2019_Dec_11_1612;iat_vr;60.18538301655544;
6;STADT;Gemacht;q;0;4;4;6;q;1;0.5977525000052992;002;JWES98x;2019_Dec_11_1612;iat_vr;60.18538301655544;
6;GUT;positiv;p;0;5;5;19;p;1;0.8649910000094678;002;JWES98x;2019_Dec_11_1612;iat_vr;60.18538301655544;
6;AUSGEZEICHNET;positiv;p;0;6;6;15;p;1;1.4454344999976456;002;JWES98x;2019_Dec_11_1612;iat_vr;60.18538301655544;
6;HERVORRAGEND;positiv;p;0;7;7;17;p;1;0.6451265999930911;002;JWES98x;2019_Dec_11_1612;iat_vr;60.18538301655544;
6;TIER;Natur;p;0;8;8;3;p;1;0.7525500000047032;002;JWES98x;2019_Dec_11_1612;iat_vr;60.18538301655544;
6;STEIN;Natur;p;0;9;9;4;p;1;0.5987221000250429;002;JWES98x;2019_Dec_11_1612;iat_vr;60.18538301655544;
6;KLEIDER;Gemacht;q;0;10;10;7;q;1;0.6126657999993768;002;JWES98x;2019_Dec_11_1612;iat_vr;60.18538301655544;
6;NEGATIV;negativ;q;0;11;11;12;q;1;0.6809356999874581;002;JWES98x;2019_Dec_11_1612;iat_vr;60.18538301655544;
6;LAMPE;Gemacht;q;0;12;12;9;q;1;1.1512424999964423;002;JWES98x;2019_Dec_11_1612;iat_vr;60.18538301655544;
6;WASSER;Natur;p;0;13;13;1;p;1;2.896013599995058;002;JWES98x;2019_Dec_11_1612;iat_vr;60.18538301655544;
6;SCHWACH;negativ;q;0;14;14;14;q;1;1.6967918000009377;002;JWES98x;2019_Dec_11_1612;iat_vr;60.18538301655544;
6;GEBÄUDE;Gemacht;q;0;15;15;5;q;1;0.8808210999995936;002;JWES98x;2019_Dec_11_1612;iat_vr;60.18538301655544;
6;COMPUTER;Gemacht;q;0;16;16;8;q;1;1.2946300000185147;002;JWES98x;2019_Dec_11_1612;iat_vr;60.18538301655544;
6;SCHÄDLICH;negativ;q;0;17;17;13;q;1;1.344886500010034;002;JWES98x;2019_Dec_11_1612;iat_vr;60.18538301655544;
6;SCHLECHT;negativ;q;0;18;18;11;q;1;1.1127121999743395;002;JWES98x;2019_Dec_11_1612;iat_vr;60.18538301655544;
6;BLUME;Natur;p;0;19;19;2;p;1;0.798060400004033;002;JWES98x;2019_Dec_11_1612;iat_vr;60.18538301655544;
;;;;;;;;;;;002;JWES98x;2019_Dec_11_1612;iat_vr;60.18538301655544;
7;SCHLIMM;negativ;q;0;0;0;10;q;1;0.8291966999822762;002;JWES98x;2019_Dec_11_1612;iat_vr;60.18538301655544;
7;WASSER;Natur;p;0;1;1;1;p;1;1.1152809000050183;002;JWES98x;2019_Dec_11_1612;iat_vr;60.18538301655544;
7;HERVORRAGEND;positiv;p;0;2;2;17;p;1;0.5616059000021778;002;JWES98x;2019_Dec_11_1612;iat_vr;60.18538301655544;
7;GEBÄUDE;Gemacht;q;0;3;3;5;q;1;0.7124738999991678;002;JWES98x;2019_Dec_11_1612;iat_vr;60.18538301655544;
7;KLEIDER;Gemacht;q;0;4;4;7;q;1;0.6113619999960065;002;JWES98x;2019_Dec_11_1612;iat_vr;60.18538301655544;
7;EINWANDFREI;positiv;p;0;5;5;16;p;1;1.0851096999831498;002;JWES98x;2019_Dec_11_1612;iat_vr;60.18538301655544;
7;COMPUTER;Gemacht;q;0;6;6;8;q;1;0.9777973999734968;002;JWES98x;2019_Dec_11_1612;iat_vr;60.18538301655544;
7;SCHLECHT;negativ;q;0;7;7;11;q;1;0.6100505000213161;002;JWES98x;2019_Dec_11_1612;iat_vr;60.18538301655544;
7;BAUM;Natur;p;0;8;8;0;p;1;1.1650448000000324;002;JWES98x;2019_Dec_11_1612;iat_vr;60.18538301655544;
7;STEIN;Natur;p;0;9;9;4;p;1;0.498696700000437;002;JWES98x;2019_Dec_11_1612;iat_vr;60.18538301655544;
7;BLUME;Natur;p;0;10;10;2;p;1;0.6646765999903437;002;JWES98x;2019_Dec_11_1612;iat_vr;60.18538301655544;
7;GUT;positiv;p;0;11;11;19;p;1;0.5802321000082884;002;JWES98x;2019_Dec_11_1612;iat_vr;60.18538301655544;
7;NEGATIV;negativ;q;0;12;12;12;q;1;0.6304534999944735;002;JWES98x;2019_Dec_11_1612;iat_vr;60.18538301655544;
7;POSITIV;positiv;p;0;13;13;18;p;1;0.6147034000023268;002;JWES98x;2019_Dec_11_1612;iat_vr;60.18538301655544;
7;SCHÄDLICH;negativ;q;0;14;14;13;q;1;1.113050000014482;002;JWES98x;2019_Dec_11_1612;iat_vr;60.18538301655544;
7;AUSGEZEICHNET;positiv;p;0;15;15;15;p;1;0.692582499992568;002;JWES98x;2019_Dec_11_1612;iat_vr;60.18538301655544;
7;TIER;Natur;p;0;16;16;3;p;1;0.6486664999974892;002;JWES98x;2019_Dec_11_1612;iat_vr;60.18538301655544;
7;LAMPE;Gemacht;q;0;17;17;9;q;1;0.7940082999994047;002;JWES98x;2019_Dec_11_1612;iat_vr;60.18538301655544;
7;STADT;Gemacht;q;0;18;18;6;q;1;0.6320492999802809;002;JWES98x;2019_Dec_11_1612;iat_vr;60.18538301655544;
7;SCHWACH;negativ;q;0;19;19;14;q;1;0.9299050999979954;002;JWES98x;2019_Dec_11_1612;iat_vr;60.18538301655544;
7;KLEIDER;Gemacht;q;1;0;20;7;q;1;0.9626300999952946;002;JWES98x;2019_Dec_11_1612;iat_vr;60.18538301655544;
7;EINWANDFREI;positiv;p;1;1;21;16;p;1;0.6277014999941457;002;JWES98x;2019_Dec_11_1612;iat_vr;60.18538301655544;
7;HERVORRAGEND;positiv;p;1;2;22;17;p;1;0.5123633000184782;002;JWES98x;2019_Dec_11_1612;iat_vr;60.18538301655544;
7;SCHLECHT;negativ;q;1;3;23;11;q;1;0.5621324999956414;002;JWES98x;2019_Dec_11_1612;iat_vr;60.18538301655544;
7;GEBÄUDE;Gemacht;q;1;4;24;5;q;1;0.7350655999907758;002;JWES98x;2019_Dec_11_1612;iat_vr;60.18538301655544;
7;SCHLIMM;negativ;q;1;5;25;10;q;1;0.6803911999741104;002;JWES98x;2019_Dec_11_1612;iat_vr;60.18538301655544;
7;SCHWACH;negativ;q;1;6;26;14;q;1;0.745808500010753;002;JWES98x;2019_Dec_11_1612;iat_vr;60.18538301655544;
7;AUSGEZEICHNET;positiv;p;1;7;27;15;p;1;0.7928353000024799;002;JWES98x;2019_Dec_11_1612;iat_vr;60.18538301655544;
7;LAMPE;Gemacht;q;1;8;28;9;q;1;0.7316006000037305;002;JWES98x;2019_Dec_11_1612;iat_vr;60.18538301655544;
7;SCHÄDLICH;negativ;q;1;9;29;13;q;1;0.7636800999753177;002;JWES98x;2019_Dec_11_1612;iat_vr;60.18538301655544;
7;COMPUTER;Gemacht;q;1;10;30;8;q;1;0.8453580999921542;002;JWES98x;2019_Dec_11_1612;iat_vr;60.18538301655544;
7;GUT;positiv;p;1;11;31;19;p;1;0.6328251999802887;002;JWES98x;2019_Dec_11_1612;iat_vr;60.18538301655544;
7;TIER;Natur;p;1;12;32;3;p;1;0.731602500018198;002;JWES98x;2019_Dec_11_1612;iat_vr;60.18538301655544;
7;POSITIV;positiv;p;1;13;33;18;p;1;0.6300398999883328;002;JWES98x;2019_Dec_11_1612;iat_vr;60.18538301655544;
7;STADT;Gemacht;q;1;14;34;6;q;1;0.7819229000015184;002;JWES98x;2019_Dec_11_1612;iat_vr;60.18538301655544;
7;STEIN;Natur;p;1;15;35;4;p;1;1.1818052000016905;002;JWES98x;2019_Dec_11_1612;iat_vr;60.18538301655544;
7;BLUME;Natur;p;1;16;36;2;p;1;0.9815779000055045;002;JWES98x;2019_Dec_11_1612;iat_vr;60.18538301655544;
7;BAUM;Natur;p;1;17;37;0;p;1;0.8641627000179142;002;JWES98x;2019_Dec_11_1612;iat_vr;60.18538301655544;
7;WASSER;Natur;p;1;18;38;1;p;1;0.7491156000178307;002;JWES98x;2019_Dec_11_1612;iat_vr;60.18538301655544;
7;NEGATIV;negativ;q;1;19;39;12;q;1;0.780431299994234;002;JWES98x;2019_Dec_11_1612;iat_vr;60.18538301655544;
;;;;;;;;;;;002;JWES98x;2019_Dec_11_1612;iat_vr;60.18538301655544;
