Block;Word;Category;CorrResp;trials.thisRepN;trials.thisTrialN;trials.thisN;trials.thisIndex;key_resp_2.keys;key_resp_2.corr;key_resp_2.rt;session;participant;date;expName;frameRate;
1;KLEIDER;Gemacht;p;0;0;0;7;p;1;0.8293228999973508;002;JWIK97x;2019_Dec_10_1022;iat_vr;60.039145523902164;
1;LAMPE;Gemacht;p;0;1;1;9;p;1;0.3414037000038661;002;JWIK97x;2019_Dec_10_1022;iat_vr;60.039145523902164;
1;BLUME;Natur;q;0;2;2;2;p;0;0.41778290000365814;002;JWIK97x;2019_Dec_10_1022;iat_vr;60.039145523902164;
1;BAUM;Natur;q;0;3;3;0;p;0;0.6359482000043499;002;JWIK97x;2019_Dec_10_1022;iat_vr;60.039145523902164;
1;STADT;Gemacht;p;0;4;4;6;p;1;0.7638856999983545;002;JWIK97x;2019_Dec_10_1022;iat_vr;60.039145523902164;
1;TIER;Natur;q;0;5;5;3;q;1;0.5260755000053905;002;JWIK97x;2019_Dec_10_1022;iat_vr;60.039145523902164;
1;GEBÄUDE;Gemacht;p;0;6;6;5;p;1;0.553041300001496;002;JWIK97x;2019_Dec_10_1022;iat_vr;60.039145523902164;
1;WASSER;Natur;q;0;7;7;1;q;1;0.596020299999509;002;JWIK97x;2019_Dec_10_1022;iat_vr;60.039145523902164;
1;COMPUTER;Gemacht;p;0;8;8;8;p;1;0.4886114999972051;002;JWIK97x;2019_Dec_10_1022;iat_vr;60.039145523902164;
1;STEIN;Natur;q;0;9;9;4;q;1;0.577882799996587;002;JWIK97x;2019_Dec_10_1022;iat_vr;60.039145523902164;
1;STADT;Gemacht;p;1;0;10;6;p;1;0.7155431999999564;002;JWIK97x;2019_Dec_10_1022;iat_vr;60.039145523902164;
1;BAUM;Natur;q;1;1;11;0;q;1;0.46784520000073826;002;JWIK97x;2019_Dec_10_1022;iat_vr;60.039145523902164;
1;GEBÄUDE;Gemacht;p;1;2;12;5;p;1;0.6685538000019733;002;JWIK97x;2019_Dec_10_1022;iat_vr;60.039145523902164;
1;COMPUTER;Gemacht;p;1;3;13;8;q;0;0.8821167999994941;002;JWIK97x;2019_Dec_10_1022;iat_vr;60.039145523902164;
1;TIER;Natur;q;1;4;14;3;q;1;0.7657418999951915;002;JWIK97x;2019_Dec_10_1022;iat_vr;60.039145523902164;
1;LAMPE;Gemacht;p;1;5;15;9;p;1;0.6296787999963271;002;JWIK97x;2019_Dec_10_1022;iat_vr;60.039145523902164;
1;STEIN;Natur;q;1;6;16;4;q;1;0.6123968999963836;002;JWIK97x;2019_Dec_10_1022;iat_vr;60.039145523902164;
1;BLUME;Natur;q;1;7;17;2;q;1;0.6929509999972652;002;JWIK97x;2019_Dec_10_1022;iat_vr;60.039145523902164;
1;KLEIDER;Gemacht;p;1;8;18;7;p;1;0.7979602999985218;002;JWIK97x;2019_Dec_10_1022;iat_vr;60.039145523902164;
1;WASSER;Natur;q;1;9;19;1;q;1;0.7631106000044383;002;JWIK97x;2019_Dec_10_1022;iat_vr;60.039145523902164;
;;;;;;;;;;;002;JWIK97x;2019_Dec_10_1022;iat_vr;60.039145523902164;
2;SCHWACH;negativ;q;0;0;0;4;q;1;0.6469852999944123;002;JWIK97x;2019_Dec_10_1022;iat_vr;60.039145523902164;
2;EINWANDFREI;positiv;p;0;1;1;6;p;1;0.5772987000018475;002;JWIK97x;2019_Dec_10_1022;iat_vr;60.039145523902164;
2;NEGATIV;negativ;q;0;2;2;2;q;1;0.5059173999979976;002;JWIK97x;2019_Dec_10_1022;iat_vr;60.039145523902164;
2;AUSGEZEICHNET;positiv;p;0;3;3;5;p;1;0.5398092999967048;002;JWIK97x;2019_Dec_10_1022;iat_vr;60.039145523902164;
2;POSITIV;positiv;p;0;4;4;8;p;1;0.5808143999965978;002;JWIK97x;2019_Dec_10_1022;iat_vr;60.039145523902164;
2;SCHLECHT;negativ;q;0;5;5;1;q;1;0.5805409999957192;002;JWIK97x;2019_Dec_10_1022;iat_vr;60.039145523902164;
2;GUT;positiv;p;0;6;6;9;p;1;0.5316600000005565;002;JWIK97x;2019_Dec_10_1022;iat_vr;60.039145523902164;
2;SCHÄDLICH;negativ;q;0;7;7;3;q;1;0.6632969999991474;002;JWIK97x;2019_Dec_10_1022;iat_vr;60.039145523902164;
2;SCHLIMM;negativ;q;0;8;8;0;q;1;0.6356798999986495;002;JWIK97x;2019_Dec_10_1022;iat_vr;60.039145523902164;
2;HERVORRAGEND;positiv;p;0;9;9;7;p;1;0.6626636000000872;002;JWIK97x;2019_Dec_10_1022;iat_vr;60.039145523902164;
2;SCHWACH;negativ;q;1;0;10;4;q;1;0.7122795999966911;002;JWIK97x;2019_Dec_10_1022;iat_vr;60.039145523902164;
2;EINWANDFREI;positiv;p;1;1;11;6;p;1;0.579000099998666;002;JWIK97x;2019_Dec_10_1022;iat_vr;60.039145523902164;
2;GUT;positiv;p;1;2;12;9;q;0;0.5360148999970988;002;JWIK97x;2019_Dec_10_1022;iat_vr;60.039145523902164;
2;NEGATIV;negativ;q;1;3;13;2;q;1;0.8788812999991933;002;JWIK97x;2019_Dec_10_1022;iat_vr;60.039145523902164;
2;SCHLECHT;negativ;q;1;4;14;1;q;1;0.7633635000020149;002;JWIK97x;2019_Dec_10_1022;iat_vr;60.039145523902164;
2;AUSGEZEICHNET;positiv;p;1;5;15;5;p;1;0.5609972999955062;002;JWIK97x;2019_Dec_10_1022;iat_vr;60.039145523902164;
2;POSITIV;positiv;p;1;6;16;8;p;1;0.9144576999970013;002;JWIK97x;2019_Dec_10_1022;iat_vr;60.039145523902164;
2;SCHÄDLICH;negativ;q;1;7;17;3;q;1;0.6249402000030386;002;JWIK97x;2019_Dec_10_1022;iat_vr;60.039145523902164;
2;SCHLIMM;negativ;q;1;8;18;0;q;1;0.581298400000378;002;JWIK97x;2019_Dec_10_1022;iat_vr;60.039145523902164;
2;HERVORRAGEND;positiv;p;1;9;19;7;p;1;0.44429479999962496;002;JWIK97x;2019_Dec_10_1022;iat_vr;60.039145523902164;
;;;;;;;;;;;002;JWIK97x;2019_Dec_10_1022;iat_vr;60.039145523902164;
3;BLUME;Natur;q;0;0;0;12;q;1;0.9816483999966295;002;JWIK97x;2019_Dec_10_1022;iat_vr;60.039145523902164;
3;TIER;Natur;q;0;1;1;13;q;1;0.6519534000035492;002;JWIK97x;2019_Dec_10_1022;iat_vr;60.039145523902164;
3;STADT;Gemacht;p;0;2;2;16;p;1;0.6483322999993106;002;JWIK97x;2019_Dec_10_1022;iat_vr;60.039145523902164;
3;BAUM;Natur;q;0;3;3;10;q;1;1.1143914999993285;002;JWIK97x;2019_Dec_10_1022;iat_vr;60.039145523902164;
3;KLEIDER;Gemacht;p;0;4;4;17;p;1;0.8615253000025405;002;JWIK97x;2019_Dec_10_1022;iat_vr;60.039145523902164;
3;COMPUTER;Gemacht;p;0;5;5;18;p;1;2.2135447999971802;002;JWIK97x;2019_Dec_10_1022;iat_vr;60.039145523902164;
3;HERVORRAGEND;positiv;p;0;6;6;7;q;0;0.645010899999761;002;JWIK97x;2019_Dec_10_1022;iat_vr;60.039145523902164;
3;SCHWACH;negativ;q;0;7;7;4;q;1;1.2310638999988441;002;JWIK97x;2019_Dec_10_1022;iat_vr;60.039145523902164;
3;SCHÄDLICH;negativ;q;0;8;8;3;q;1;0.49796079999941867;002;JWIK97x;2019_Dec_10_1022;iat_vr;60.039145523902164;
3;LAMPE;Gemacht;p;0;9;9;19;p;1;1.4140560000014375;002;JWIK97x;2019_Dec_10_1022;iat_vr;60.039145523902164;
3;AUSGEZEICHNET;positiv;p;0;10;10;5;p;1;0.9514429000046221;002;JWIK97x;2019_Dec_10_1022;iat_vr;60.039145523902164;
3;SCHLIMM;negativ;q;0;11;11;0;q;1;0.9179826000035973;002;JWIK97x;2019_Dec_10_1022;iat_vr;60.039145523902164;
3;EINWANDFREI;positiv;p;0;12;12;6;p;1;1.034265400005097;002;JWIK97x;2019_Dec_10_1022;iat_vr;60.039145523902164;
3;NEGATIV;negativ;q;0;13;13;2;q;1;0.6631848999968497;002;JWIK97x;2019_Dec_10_1022;iat_vr;60.039145523902164;
3;GUT;positiv;p;0;14;14;9;p;1;0.8489340999949491;002;JWIK97x;2019_Dec_10_1022;iat_vr;60.039145523902164;
3;POSITIV;positiv;p;0;15;15;8;p;1;0.5974067000061041;002;JWIK97x;2019_Dec_10_1022;iat_vr;60.039145523902164;
3;STEIN;Natur;q;0;16;16;14;q;1;0.980778500001179;002;JWIK97x;2019_Dec_10_1022;iat_vr;60.039145523902164;
3;GEBÄUDE;Gemacht;p;0;17;17;15;p;1;0.7966366000036942;002;JWIK97x;2019_Dec_10_1022;iat_vr;60.039145523902164;
3;WASSER;Natur;q;0;18;18;11;q;1;0.5137145000044256;002;JWIK97x;2019_Dec_10_1022;iat_vr;60.039145523902164;
3;SCHLECHT;negativ;q;0;19;19;1;q;1;1.1019039999955567;002;JWIK97x;2019_Dec_10_1022;iat_vr;60.039145523902164;
;;;;;;;;;;;002;JWIK97x;2019_Dec_10_1022;iat_vr;60.039145523902164;
4;AUSGEZEICHNET;positiv;p;0;0;0;5;p;1;0.7600537999969674;002;JWIK97x;2019_Dec_10_1022;iat_vr;60.039145523902164;
4;WASSER;Natur;q;0;1;1;11;q;1;0.5807938999932958;002;JWIK97x;2019_Dec_10_1022;iat_vr;60.039145523902164;
4;NEGATIV;negativ;q;0;2;2;2;q;1;0.542824299998756;002;JWIK97x;2019_Dec_10_1022;iat_vr;60.039145523902164;
4;BLUME;Natur;q;0;3;3;12;q;1;0.5138536000013119;002;JWIK97x;2019_Dec_10_1022;iat_vr;60.039145523902164;
4;TIER;Natur;q;0;4;4;13;q;1;0.464543500005675;002;JWIK97x;2019_Dec_10_1022;iat_vr;60.039145523902164;
4;EINWANDFREI;positiv;p;0;5;5;6;p;1;0.830268799996702;002;JWIK97x;2019_Dec_10_1022;iat_vr;60.039145523902164;
4;STADT;Gemacht;p;0;6;6;16;q;0;0.9146514999956707;002;JWIK97x;2019_Dec_10_1022;iat_vr;60.039145523902164;
4;GEBÄUDE;Gemacht;p;0;7;7;15;p;1;2.8137454000025173;002;JWIK97x;2019_Dec_10_1022;iat_vr;60.039145523902164;
4;SCHWACH;negativ;q;0;8;8;4;q;1;1.2972227999998722;002;JWIK97x;2019_Dec_10_1022;iat_vr;60.039145523902164;
4;LAMPE;Gemacht;p;0;9;9;19;p;1;1.447181499999715;002;JWIK97x;2019_Dec_10_1022;iat_vr;60.039145523902164;
4;KLEIDER;Gemacht;p;0;10;10;17;p;1;0.7625715999965905;002;JWIK97x;2019_Dec_10_1022;iat_vr;60.039145523902164;
4;SCHLIMM;negativ;q;0;11;11;0;q;1;1.1638445999997202;002;JWIK97x;2019_Dec_10_1022;iat_vr;60.039145523902164;
4;POSITIV;positiv;p;0;12;12;8;p;1;0.5976379999992787;002;JWIK97x;2019_Dec_10_1022;iat_vr;60.039145523902164;
4;SCHLECHT;negativ;q;0;13;13;1;q;1;0.8686537999965367;002;JWIK97x;2019_Dec_10_1022;iat_vr;60.039145523902164;
4;COMPUTER;Gemacht;p;0;14;14;18;p;1;0.6818249999996624;002;JWIK97x;2019_Dec_10_1022;iat_vr;60.039145523902164;
4;GUT;positiv;p;0;15;15;9;p;1;1.2319850999992923;002;JWIK97x;2019_Dec_10_1022;iat_vr;60.039145523902164;
4;SCHÄDLICH;negativ;q;0;16;16;3;q;1;1.0172993000014685;002;JWIK97x;2019_Dec_10_1022;iat_vr;60.039145523902164;
4;BAUM;Natur;q;0;17;17;10;q;1;0.9959672000040882;002;JWIK97x;2019_Dec_10_1022;iat_vr;60.039145523902164;
4;STEIN;Natur;q;0;18;18;14;q;1;0.548192399997788;002;JWIK97x;2019_Dec_10_1022;iat_vr;60.039145523902164;
4;HERVORRAGEND;positiv;p;0;19;19;7;p;1;0.8955304000046453;002;JWIK97x;2019_Dec_10_1022;iat_vr;60.039145523902164;
4;EINWANDFREI;positiv;p;1;0;20;6;p;1;0.6806742999979178;002;JWIK97x;2019_Dec_10_1022;iat_vr;60.039145523902164;
4;SCHLECHT;negativ;q;1;1;21;1;q;1;0.6978826999984449;002;JWIK97x;2019_Dec_10_1022;iat_vr;60.039145523902164;
4;AUSGEZEICHNET;positiv;p;1;2;22;5;p;1;0.6273331999982474;002;JWIK97x;2019_Dec_10_1022;iat_vr;60.039145523902164;
4;SCHLIMM;negativ;q;1;3;23;0;q;1;0.6670806999973138;002;JWIK97x;2019_Dec_10_1022;iat_vr;60.039145523902164;
4;BLUME;Natur;q;1;4;24;12;q;1;0.5977878999983659;002;JWIK97x;2019_Dec_10_1022;iat_vr;60.039145523902164;
4;HERVORRAGEND;positiv;p;1;5;25;7;p;1;0.7612948000023607;002;JWIK97x;2019_Dec_10_1022;iat_vr;60.039145523902164;
4;STADT;Gemacht;p;1;6;26;16;q;0;0.5971397000030265;002;JWIK97x;2019_Dec_10_1022;iat_vr;60.039145523902164;
4;STEIN;Natur;q;1;7;27;14;q;1;0.8650427000029595;002;JWIK97x;2019_Dec_10_1022;iat_vr;60.039145523902164;
4;WASSER;Natur;q;1;8;28;11;q;1;0.5309630999981891;002;JWIK97x;2019_Dec_10_1022;iat_vr;60.039145523902164;
4;LAMPE;Gemacht;p;1;9;29;19;p;1;0.563810999999987;002;JWIK97x;2019_Dec_10_1022;iat_vr;60.039145523902164;
4;COMPUTER;Gemacht;p;1;10;30;18;p;1;0.5308838999990257;002;JWIK97x;2019_Dec_10_1022;iat_vr;60.039145523902164;
4;TIER;Natur;q;1;11;31;13;q;1;0.6509095000001253;002;JWIK97x;2019_Dec_10_1022;iat_vr;60.039145523902164;
4;NEGATIV;negativ;q;1;12;32;2;q;1;0.7306656000000658;002;JWIK97x;2019_Dec_10_1022;iat_vr;60.039145523902164;
4;SCHÄDLICH;negativ;q;1;13;33;3;q;1;0.6766677999985404;002;JWIK97x;2019_Dec_10_1022;iat_vr;60.039145523902164;
4;POSITIV;positiv;p;1;14;34;8;p;1;1.0973501999978907;002;JWIK97x;2019_Dec_10_1022;iat_vr;60.039145523902164;
4;BAUM;Natur;q;1;15;35;10;q;1;0.6490618000025279;002;JWIK97x;2019_Dec_10_1022;iat_vr;60.039145523902164;
4;KLEIDER;Gemacht;p;1;16;36;17;p;1;0.6139050999991014;002;JWIK97x;2019_Dec_10_1022;iat_vr;60.039145523902164;
4;GEBÄUDE;Gemacht;p;1;17;37;15;p;1;0.6912630000006175;002;JWIK97x;2019_Dec_10_1022;iat_vr;60.039145523902164;
4;GUT;positiv;p;1;18;38;9;p;1;0.5995436000011978;002;JWIK97x;2019_Dec_10_1022;iat_vr;60.039145523902164;
4;SCHWACH;negativ;q;1;19;39;4;q;1;1.063749100001587;002;JWIK97x;2019_Dec_10_1022;iat_vr;60.039145523902164;
;;;;;;;;;;;002;JWIK97x;2019_Dec_10_1022;iat_vr;60.039145523902164;
5;KLEIDER;Gemacht;q;0;0;0;7;p;0;2.7960149999998976;002;JWIK97x;2019_Dec_10_1022;iat_vr;60.039145523902164;
5;COMPUTER;Gemacht;q;0;1;1;8;q;1;0.5631506999998237;002;JWIK97x;2019_Dec_10_1022;iat_vr;60.039145523902164;
5;STEIN;Natur;p;0;2;2;4;p;1;0.6656333000064478;002;JWIK97x;2019_Dec_10_1022;iat_vr;60.039145523902164;
5;BAUM;Natur;p;0;3;3;0;p;1;0.9139194999952451;002;JWIK97x;2019_Dec_10_1022;iat_vr;60.039145523902164;
5;BLUME;Natur;p;0;4;4;2;p;1;0.8474538000009488;002;JWIK97x;2019_Dec_10_1022;iat_vr;60.039145523902164;
5;TIER;Natur;p;0;5;5;3;p;1;0.5324183999982779;002;JWIK97x;2019_Dec_10_1022;iat_vr;60.039145523902164;
5;WASSER;Natur;p;0;6;6;1;p;1;0.5124441000007209;002;JWIK97x;2019_Dec_10_1022;iat_vr;60.039145523902164;
5;STADT;Gemacht;q;0;7;7;6;q;1;0.5139584999997169;002;JWIK97x;2019_Dec_10_1022;iat_vr;60.039145523902164;
5;GEBÄUDE;Gemacht;q;0;8;8;5;q;1;1.4957780999975512;002;JWIK97x;2019_Dec_10_1022;iat_vr;60.039145523902164;
5;LAMPE;Gemacht;q;0;9;9;9;q;1;0.6657763999974122;002;JWIK97x;2019_Dec_10_1022;iat_vr;60.039145523902164;
5;GEBÄUDE;Gemacht;q;1;0;10;5;q;1;0.5805332000018097;002;JWIK97x;2019_Dec_10_1022;iat_vr;60.039145523902164;
5;STEIN;Natur;p;1;1;11;4;p;1;0.6811174000031315;002;JWIK97x;2019_Dec_10_1022;iat_vr;60.039145523902164;
5;KLEIDER;Gemacht;q;1;2;12;7;q;1;0.6021382999970228;002;JWIK97x;2019_Dec_10_1022;iat_vr;60.039145523902164;
5;STADT;Gemacht;q;1;3;13;6;p;0;0.6319459000005736;002;JWIK97x;2019_Dec_10_1022;iat_vr;60.039145523902164;
5;TIER;Natur;p;1;4;14;3;q;0;1.2491173000016715;002;JWIK97x;2019_Dec_10_1022;iat_vr;60.039145523902164;
5;BAUM;Natur;p;1;5;15;0;q;0;1.9160704000023543;002;JWIK97x;2019_Dec_10_1022;iat_vr;60.039145523902164;
5;WASSER;Natur;p;1;6;16;1;p;1;1.1819622999973944;002;JWIK97x;2019_Dec_10_1022;iat_vr;60.039145523902164;
5;BLUME;Natur;p;1;7;17;2;p;1;0.5140783000024385;002;JWIK97x;2019_Dec_10_1022;iat_vr;60.039145523902164;
5;COMPUTER;Gemacht;q;1;8;18;8;q;1;0.598104600001534;002;JWIK97x;2019_Dec_10_1022;iat_vr;60.039145523902164;
5;LAMPE;Gemacht;q;1;9;19;9;q;1;0.5273358000049484;002;JWIK97x;2019_Dec_10_1022;iat_vr;60.039145523902164;
;;;;;;;;;;;002;JWIK97x;2019_Dec_10_1022;iat_vr;60.039145523902164;
6;POSITIV;positiv;p;0;0;0;18;p;1;0.5989794999986771;002;JWIK97x;2019_Dec_10_1022;iat_vr;60.039145523902164;
6;STEIN;Natur;p;0;1;1;4;p;1;0.4981005000008736;002;JWIK97x;2019_Dec_10_1022;iat_vr;60.039145523902164;
6;KLEIDER;Gemacht;q;0;2;2;7;q;1;0.6127949000001536;002;JWIK97x;2019_Dec_10_1022;iat_vr;60.039145523902164;
6;SCHLIMM;negativ;q;0;3;3;10;q;1;0.71374000000651;002;JWIK97x;2019_Dec_10_1022;iat_vr;60.039145523902164;
6;GUT;positiv;p;0;4;4;19;p;1;0.5351191000008839;002;JWIK97x;2019_Dec_10_1022;iat_vr;60.039145523902164;
6;HERVORRAGEND;positiv;p;0;5;5;17;p;1;1.4609287999992375;002;JWIK97x;2019_Dec_10_1022;iat_vr;60.039145523902164;
6;AUSGEZEICHNET;positiv;p;0;6;6;15;p;1;0.49440299999696435;002;JWIK97x;2019_Dec_10_1022;iat_vr;60.039145523902164;
6;SCHWACH;negativ;q;0;7;7;14;q;1;0.4475782000008621;002;JWIK97x;2019_Dec_10_1022;iat_vr;60.039145523902164;
6;COMPUTER;Gemacht;q;0;8;8;8;q;1;0.8948645999989822;002;JWIK97x;2019_Dec_10_1022;iat_vr;60.039145523902164;
6;SCHÄDLICH;negativ;q;0;9;9;13;q;1;0.5470347999944352;002;JWIK97x;2019_Dec_10_1022;iat_vr;60.039145523902164;
6;TIER;Natur;p;0;10;10;3;p;1;0.7650486999991699;002;JWIK97x;2019_Dec_10_1022;iat_vr;60.039145523902164;
6;STADT;Gemacht;q;0;11;11;6;q;1;0.6982043999960297;002;JWIK97x;2019_Dec_10_1022;iat_vr;60.039145523902164;
6;NEGATIV;negativ;q;0;12;12;12;q;1;0.8476806999969995;002;JWIK97x;2019_Dec_10_1022;iat_vr;60.039145523902164;
6;SCHLECHT;negativ;q;0;13;13;11;q;1;0.41423060000670375;002;JWIK97x;2019_Dec_10_1022;iat_vr;60.039145523902164;
6;BLUME;Natur;p;0;14;14;2;p;1;0.5095735000068089;002;JWIK97x;2019_Dec_10_1022;iat_vr;60.039145523902164;
6;WASSER;Natur;p;0;15;15;1;p;1;0.8469439999971655;002;JWIK97x;2019_Dec_10_1022;iat_vr;60.039145523902164;
6;LAMPE;Gemacht;q;0;16;16;9;q;1;0.5820222999973339;002;JWIK97x;2019_Dec_10_1022;iat_vr;60.039145523902164;
6;EINWANDFREI;positiv;p;0;17;17;16;p;1;0.6624330999984522;002;JWIK97x;2019_Dec_10_1022;iat_vr;60.039145523902164;
6;BAUM;Natur;p;0;18;18;0;q;0;0.5151286999971489;002;JWIK97x;2019_Dec_10_1022;iat_vr;60.039145523902164;
6;GEBÄUDE;Gemacht;q;0;19;19;5;q;1;1.0976521999982651;002;JWIK97x;2019_Dec_10_1022;iat_vr;60.039145523902164;
;;;;;;;;;;;002;JWIK97x;2019_Dec_10_1022;iat_vr;60.039145523902164;
7;COMPUTER;Gemacht;q;0;0;0;8;q;1;1.0859555999995791;002;JWIK97x;2019_Dec_10_1022;iat_vr;60.039145523902164;
7;AUSGEZEICHNET;positiv;p;0;1;1;15;p;1;0.561118899997382;002;JWIK97x;2019_Dec_10_1022;iat_vr;60.039145523902164;
7;GEBÄUDE;Gemacht;q;0;2;2;5;q;1;0.6646060999992187;002;JWIK97x;2019_Dec_10_1022;iat_vr;60.039145523902164;
7;SCHLIMM;negativ;q;0;3;3;10;q;1;0.7810272999995505;002;JWIK97x;2019_Dec_10_1022;iat_vr;60.039145523902164;
7;TIER;Natur;p;0;4;4;3;p;1;0.5965531999972882;002;JWIK97x;2019_Dec_10_1022;iat_vr;60.039145523902164;
7;STADT;Gemacht;q;0;5;5;6;q;1;0.5988622000004398;002;JWIK97x;2019_Dec_10_1022;iat_vr;60.039145523902164;
7;BLUME;Natur;p;0;6;6;2;p;1;0.5815051999961725;002;JWIK97x;2019_Dec_10_1022;iat_vr;60.039145523902164;
7;STEIN;Natur;p;0;7;7;4;p;1;0.5476826999947662;002;JWIK97x;2019_Dec_10_1022;iat_vr;60.039145523902164;
7;HERVORRAGEND;positiv;p;0;8;8;17;p;1;0.6794132000068203;002;JWIK97x;2019_Dec_10_1022;iat_vr;60.039145523902164;
7;SCHÄDLICH;negativ;q;0;9;9;13;q;1;0.6082612999962294;002;JWIK97x;2019_Dec_10_1022;iat_vr;60.039145523902164;
7;EINWANDFREI;positiv;p;0;10;10;16;p;1;0.5774356000038097;002;JWIK97x;2019_Dec_10_1022;iat_vr;60.039145523902164;
7;SCHLECHT;negativ;q;0;11;11;11;q;1;0.6428981999997632;002;JWIK97x;2019_Dec_10_1022;iat_vr;60.039145523902164;
7;WASSER;Natur;p;0;12;12;1;p;1;0.5638079999989714;002;JWIK97x;2019_Dec_10_1022;iat_vr;60.039145523902164;
7;SCHWACH;negativ;q;0;13;13;14;q;1;0.9479563999993843;002;JWIK97x;2019_Dec_10_1022;iat_vr;60.039145523902164;
7;LAMPE;Gemacht;q;0;14;14;9;q;1;0.646534999999858;002;JWIK97x;2019_Dec_10_1022;iat_vr;60.039145523902164;
7;NEGATIV;negativ;q;0;15;15;12;q;1;0.6814885000057984;002;JWIK97x;2019_Dec_10_1022;iat_vr;60.039145523902164;
7;KLEIDER;Gemacht;q;0;16;16;7;q;1;0.6816199999957462;002;JWIK97x;2019_Dec_10_1022;iat_vr;60.039145523902164;
7;POSITIV;positiv;p;0;17;17;18;p;1;0.6500764999946114;002;JWIK97x;2019_Dec_10_1022;iat_vr;60.039145523902164;
7;GUT;positiv;p;0;18;18;19;p;1;0.6151221000036458;002;JWIK97x;2019_Dec_10_1022;iat_vr;60.039145523902164;
7;BAUM;Natur;p;0;19;19;0;p;1;0.7314613999988069;002;JWIK97x;2019_Dec_10_1022;iat_vr;60.039145523902164;
7;WASSER;Natur;p;1;0;20;1;p;1;0.6487115999989328;002;JWIK97x;2019_Dec_10_1022;iat_vr;60.039145523902164;
7;SCHLIMM;negativ;q;1;1;21;10;q;1;0.6521991999979946;002;JWIK97x;2019_Dec_10_1022;iat_vr;60.039145523902164;
7;STEIN;Natur;p;1;2;22;4;p;1;0.5133598999964306;002;JWIK97x;2019_Dec_10_1022;iat_vr;60.039145523902164;
7;TIER;Natur;p;1;3;23;3;p;1;0.6978924999930314;002;JWIK97x;2019_Dec_10_1022;iat_vr;60.039145523902164;
7;STADT;Gemacht;q;1;4;24;6;q;1;0.6632593000031193;002;JWIK97x;2019_Dec_10_1022;iat_vr;60.039145523902164;
7;NEGATIV;negativ;q;1;5;25;12;p;0;0.5577001999990898;002;JWIK97x;2019_Dec_10_1022;iat_vr;60.039145523902164;
7;BLUME;Natur;p;1;6;26;2;p;1;1.7148703999991994;002;JWIK97x;2019_Dec_10_1022;iat_vr;60.039145523902164;
7;POSITIV;positiv;p;1;7;27;18;p;1;0.6468688999957521;002;JWIK97x;2019_Dec_10_1022;iat_vr;60.039145523902164;
7;LAMPE;Gemacht;q;1;8;28;9;q;1;0.6651790000032634;002;JWIK97x;2019_Dec_10_1022;iat_vr;60.039145523902164;
7;SCHWACH;negativ;q;1;9;29;14;q;1;0.7805462999967858;002;JWIK97x;2019_Dec_10_1022;iat_vr;60.039145523902164;
7;SCHÄDLICH;negativ;q;1;10;30;13;q;1;0.7100388000035309;002;JWIK97x;2019_Dec_10_1022;iat_vr;60.039145523902164;
7;EINWANDFREI;positiv;p;1;11;31;16;q;0;0.6794026999996277;002;JWIK97x;2019_Dec_10_1022;iat_vr;60.039145523902164;
7;KLEIDER;Gemacht;q;1;12;32;7;q;1;1.2149632000000565;002;JWIK97x;2019_Dec_10_1022;iat_vr;60.039145523902164;
7;GEBÄUDE;Gemacht;q;1;13;33;5;q;1;0.5993154999960097;002;JWIK97x;2019_Dec_10_1022;iat_vr;60.039145523902164;
7;AUSGEZEICHNET;positiv;p;1;14;34;15;p;1;0.593428699998185;002;JWIK97x;2019_Dec_10_1022;iat_vr;60.039145523902164;
7;HERVORRAGEND;positiv;p;1;15;35;17;p;1;0.5966135999988182;002;JWIK97x;2019_Dec_10_1022;iat_vr;60.039145523902164;
7;SCHLECHT;negativ;q;1;16;36;11;q;1;0.5966838000022108;002;JWIK97x;2019_Dec_10_1022;iat_vr;60.039145523902164;
7;COMPUTER;Gemacht;q;1;17;37;8;q;1;0.5965005999969435;002;JWIK97x;2019_Dec_10_1022;iat_vr;60.039145523902164;
7;GUT;positiv;p;1;18;38;19;p;1;0.5836460999998963;002;JWIK97x;2019_Dec_10_1022;iat_vr;60.039145523902164;
7;BAUM;Natur;p;1;19;39;0;p;1;0.9807338999962667;002;JWIK97x;2019_Dec_10_1022;iat_vr;60.039145523902164;
;;;;;;;;;;;002;JWIK97x;2019_Dec_10_1022;iat_vr;60.039145523902164;
