Block;Word;Category;CorrResp;trials.thisRepN;trials.thisTrialN;trials.thisN;trials.thisIndex;key_resp_2.keys;key_resp_2.corr;key_resp_2.rt;session;participant;date;expName;frameRate;
1;TIER;Natur;q;0;0;0;3;q;1;1.3242709999904037;002;JWJL98x;2019_Dec_10_1326;iat_vr;59.939461145554276;
1;WASSER;Natur;q;0;1;1;1;q;1;0.6226229000021704;002;JWJL98x;2019_Dec_10_1326;iat_vr;59.939461145554276;
1;LAMPE;Gemacht;p;0;2;2;9;p;1;0.7052906000026269;002;JWJL98x;2019_Dec_10_1326;iat_vr;59.939461145554276;
1;GEBÄUDE;Gemacht;p;0;3;3;5;p;1;0.050210799992782995;002;JWJL98x;2019_Dec_10_1326;iat_vr;59.939461145554276;
1;BLUME;Natur;q;0;4;4;2;q;1;0.6478661000001011;002;JWJL98x;2019_Dec_10_1326;iat_vr;59.939461145554276;
1;COMPUTER;Gemacht;p;0;5;5;8;p;1;0.7904163999919547;002;JWJL98x;2019_Dec_10_1326;iat_vr;59.939461145554276;
1;KLEIDER;Gemacht;p;0;6;6;7;p;1;1.3614978000114206;002;JWJL98x;2019_Dec_10_1326;iat_vr;59.939461145554276;
1;STADT;Gemacht;p;0;7;7;6;p;1;0.5495859000075143;002;JWJL98x;2019_Dec_10_1326;iat_vr;59.939461145554276;
1;BAUM;Natur;q;0;8;8;0;q;1;0.534545500006061;002;JWJL98x;2019_Dec_10_1326;iat_vr;59.939461145554276;
1;STEIN;Natur;q;0;9;9;4;q;1;1.1099364000110654;002;JWJL98x;2019_Dec_10_1326;iat_vr;59.939461145554276;
1;WASSER;Natur;q;1;0;10;1;q;1;0.8690252999949735;002;JWJL98x;2019_Dec_10_1326;iat_vr;59.939461145554276;
1;STEIN;Natur;q;1;1;11;4;q;1;0.5969718999986071;002;JWJL98x;2019_Dec_10_1326;iat_vr;59.939461145554276;
1;LAMPE;Gemacht;p;1;2;12;9;p;1;0.5814329999993788;002;JWJL98x;2019_Dec_10_1326;iat_vr;59.939461145554276;
1;BAUM;Natur;q;1;3;13;0;q;1;0.5815440000005765;002;JWJL98x;2019_Dec_10_1326;iat_vr;59.939461145554276;
1;TIER;Natur;q;1;4;14;3;q;1;1.1329957000125432;002;JWJL98x;2019_Dec_10_1326;iat_vr;59.939461145554276;
1;STADT;Gemacht;p;1;5;15;6;p;1;0.5650341000000481;002;JWJL98x;2019_Dec_10_1326;iat_vr;59.939461145554276;
1;BLUME;Natur;q;1;6;16;2;q;1;0.5655197999876691;002;JWJL98x;2019_Dec_10_1326;iat_vr;59.939461145554276;
1;GEBÄUDE;Gemacht;p;1;7;17;5;p;1;0.6960404999990715;002;JWJL98x;2019_Dec_10_1326;iat_vr;59.939461145554276;
1;KLEIDER;Gemacht;p;1;8;18;7;p;1;0.7308136000065133;002;JWJL98x;2019_Dec_10_1326;iat_vr;59.939461145554276;
1;COMPUTER;Gemacht;p;1;9;19;8;p;1;0.5128708000120241;002;JWJL98x;2019_Dec_10_1326;iat_vr;59.939461145554276;
;;;;;;;;;;;002;JWJL98x;2019_Dec_10_1326;iat_vr;59.939461145554276;
2;NEGATIV;negativ;q;0;0;0;2;q;1;1.3092884000070626;002;JWJL98x;2019_Dec_10_1326;iat_vr;59.939461145554276;
2;AUSGEZEICHNET;positiv;p;0;1;1;5;p;1;1.053852299999562;002;JWJL98x;2019_Dec_10_1326;iat_vr;59.939461145554276;
2;EINWANDFREI;positiv;p;0;2;2;6;p;1;1.3102194999955827;002;JWJL98x;2019_Dec_10_1326;iat_vr;59.939461145554276;
2;SCHÄDLICH;negativ;q;0;3;3;3;q;1;0.6504742999968585;002;JWJL98x;2019_Dec_10_1326;iat_vr;59.939461145554276;
2;GUT;positiv;p;0;4;4;9;p;1;0.5984934000007343;002;JWJL98x;2019_Dec_10_1326;iat_vr;59.939461145554276;
2;SCHLIMM;negativ;q;0;5;5;0;q;1;0.8987172000051942;002;JWJL98x;2019_Dec_10_1326;iat_vr;59.939461145554276;
2;SCHLECHT;negativ;q;0;6;6;1;q;1;0.5299101999989944;002;JWJL98x;2019_Dec_10_1326;iat_vr;59.939461145554276;
2;SCHWACH;negativ;q;0;7;7;4;q;1;0.6628802999912295;002;JWJL98x;2019_Dec_10_1326;iat_vr;59.939461145554276;
2;POSITIV;positiv;p;0;8;8;8;p;1;0.5652898999978788;002;JWJL98x;2019_Dec_10_1326;iat_vr;59.939461145554276;
2;HERVORRAGEND;positiv;p;0;9;9;7;p;1;0.6784798000007868;002;JWJL98x;2019_Dec_10_1326;iat_vr;59.939461145554276;
2;SCHÄDLICH;negativ;q;1;0;10;3;q;1;0.6117616999981692;002;JWJL98x;2019_Dec_10_1326;iat_vr;59.939461145554276;
2;HERVORRAGEND;positiv;p;1;1;11;7;p;1;0.5349549999955343;002;JWJL98x;2019_Dec_10_1326;iat_vr;59.939461145554276;
2;SCHLECHT;negativ;q;1;2;12;1;q;1;0.5796961000014562;002;JWJL98x;2019_Dec_10_1326;iat_vr;59.939461145554276;
2;AUSGEZEICHNET;positiv;p;1;3;13;5;p;1;0.6293708000011975;002;JWJL98x;2019_Dec_10_1326;iat_vr;59.939461145554276;
2;POSITIV;positiv;p;1;4;14;8;p;1;0.652392099989811;002;JWJL98x;2019_Dec_10_1326;iat_vr;59.939461145554276;
2;GUT;positiv;p;1;5;15;9;p;1;0.5324207999947248;002;JWJL98x;2019_Dec_10_1326;iat_vr;59.939461145554276;
2;EINWANDFREI;positiv;p;1;6;16;6;p;1;0.5795989000034751;002;JWJL98x;2019_Dec_10_1326;iat_vr;59.939461145554276;
2;SCHLIMM;negativ;q;1;7;17;0;q;1;0.6151353000022937;002;JWJL98x;2019_Dec_10_1326;iat_vr;59.939461145554276;
2;SCHWACH;negativ;q;1;8;18;4;q;1;0.5813192000059644;002;JWJL98x;2019_Dec_10_1326;iat_vr;59.939461145554276;
2;NEGATIV;negativ;q;1;9;19;2;q;1;0.5981016000005184;002;JWJL98x;2019_Dec_10_1326;iat_vr;59.939461145554276;
;;;;;;;;;;;002;JWJL98x;2019_Dec_10_1326;iat_vr;59.939461145554276;
3;LAMPE;Gemacht;p;0;0;0;19;p;1;1.7579003999999259;002;JWJL98x;2019_Dec_10_1326;iat_vr;59.939461145554276;
3;WASSER;Natur;q;0;1;1;11;q;1;1.2294238000031328;002;JWJL98x;2019_Dec_10_1326;iat_vr;59.939461145554276;
3;GEBÄUDE;Gemacht;p;0;2;2;15;p;1;1.064320300007239;002;JWJL98x;2019_Dec_10_1326;iat_vr;59.939461145554276;
3;COMPUTER;Gemacht;p;0;3;3;18;p;1;1.5469605999969644;002;JWJL98x;2019_Dec_10_1326;iat_vr;59.939461145554276;
3;EINWANDFREI;positiv;p;0;4;4;6;p;1;0.6717454000026919;002;JWJL98x;2019_Dec_10_1326;iat_vr;59.939461145554276;
3;POSITIV;positiv;p;0;5;5;8;p;1;0.5979637999989791;002;JWJL98x;2019_Dec_10_1326;iat_vr;59.939461145554276;
3;GUT;positiv;p;0;6;6;9;p;1;0.6991421999991871;002;JWJL98x;2019_Dec_10_1326;iat_vr;59.939461145554276;
3;SCHWACH;negativ;q;0;7;7;4;q;1;0.5974195000017062;002;JWJL98x;2019_Dec_10_1326;iat_vr;59.939461145554276;
3;AUSGEZEICHNET;positiv;p;0;8;8;5;q;0;0.8257982999930391;002;JWJL98x;2019_Dec_10_1326;iat_vr;59.939461145554276;
3;SCHÄDLICH;negativ;q;0;9;9;3;q;1;2.1162096000043675;002;JWJL98x;2019_Dec_10_1326;iat_vr;59.939461145554276;
3;BLUME;Natur;q;0;10;10;12;q;1;0.6637324999901466;002;JWJL98x;2019_Dec_10_1326;iat_vr;59.939461145554276;
3;STEIN;Natur;q;0;11;11;14;q;1;0.7149859000055585;002;JWJL98x;2019_Dec_10_1326;iat_vr;59.939461145554276;
3;HERVORRAGEND;positiv;p;0;12;12;7;p;1;0.7296041999943554;002;JWJL98x;2019_Dec_10_1326;iat_vr;59.939461145554276;
3;BAUM;Natur;q;0;13;13;10;q;1;0.9153232999960892;002;JWJL98x;2019_Dec_10_1326;iat_vr;59.939461145554276;
3;TIER;Natur;q;0;14;14;13;q;1;0.7660081999929389;002;JWJL98x;2019_Dec_10_1326;iat_vr;59.939461145554276;
3;SCHLECHT;negativ;q;0;15;15;1;q;1;1.0297665999969468;002;JWJL98x;2019_Dec_10_1326;iat_vr;59.939461145554276;
3;KLEIDER;Gemacht;p;0;16;16;17;p;1;0.9812711999984458;002;JWJL98x;2019_Dec_10_1326;iat_vr;59.939461145554276;
3;SCHLIMM;negativ;q;0;17;17;0;q;1;1.762727299996186;002;JWJL98x;2019_Dec_10_1326;iat_vr;59.939461145554276;
3;STADT;Gemacht;p;0;18;18;16;q;0;1.5153496999992058;002;JWJL98x;2019_Dec_10_1326;iat_vr;59.939461145554276;
3;NEGATIV;negativ;q;0;19;19;2;q;1;1.6244067999941763;002;JWJL98x;2019_Dec_10_1326;iat_vr;59.939461145554276;
;;;;;;;;;;;002;JWJL98x;2019_Dec_10_1326;iat_vr;59.939461145554276;
4;BLUME;Natur;q;0;0;0;12;q;1;2.9559406000043964;002;JWJL98x;2019_Dec_10_1326;iat_vr;59.939461145554276;
4;LAMPE;Gemacht;p;0;1;1;19;p;1;0.864932599986787;002;JWJL98x;2019_Dec_10_1326;iat_vr;59.939461145554276;
4;POSITIV;positiv;p;0;2;2;8;p;1;1.6305998000025284;002;JWJL98x;2019_Dec_10_1326;iat_vr;59.939461145554276;
4;SCHLIMM;negativ;q;0;3;3;0;q;1;0.8858924000087427;002;JWJL98x;2019_Dec_10_1326;iat_vr;59.939461145554276;
4;SCHLECHT;negativ;q;0;4;4;1;q;1;0.7516084999952;002;JWJL98x;2019_Dec_10_1326;iat_vr;59.939461145554276;
4;AUSGEZEICHNET;positiv;p;0;5;5;5;p;1;0.8121218000014778;002;JWJL98x;2019_Dec_10_1326;iat_vr;59.939461145554276;
4;HERVORRAGEND;positiv;p;0;6;6;7;p;1;0.8462319999962347;002;JWJL98x;2019_Dec_10_1326;iat_vr;59.939461145554276;
4;BAUM;Natur;q;0;7;7;10;q;1;1.31575029999658;002;JWJL98x;2019_Dec_10_1326;iat_vr;59.939461145554276;
4;SCHWACH;negativ;q;0;8;8;4;q;1;1.363721000001533;002;JWJL98x;2019_Dec_10_1326;iat_vr;59.939461145554276;
4;TIER;Natur;q;0;9;9;13;q;1;0.8151473999896552;002;JWJL98x;2019_Dec_10_1326;iat_vr;59.939461145554276;
4;STEIN;Natur;q;0;10;10;14;q;1;0.6980552000022726;002;JWJL98x;2019_Dec_10_1326;iat_vr;59.939461145554276;
4;EINWANDFREI;positiv;p;0;11;11;6;p;1;0.7598975000000792;002;JWJL98x;2019_Dec_10_1326;iat_vr;59.939461145554276;
4;KLEIDER;Gemacht;p;0;12;12;17;p;1;0.598426999989897;002;JWJL98x;2019_Dec_10_1326;iat_vr;59.939461145554276;
4;GUT;positiv;p;0;13;13;9;p;1;0.9831655000016326;002;JWJL98x;2019_Dec_10_1326;iat_vr;59.939461145554276;
4;COMPUTER;Gemacht;p;0;14;14;18;p;1;1.4984975999977905;002;JWJL98x;2019_Dec_10_1326;iat_vr;59.939461145554276;
4;SCHÄDLICH;negativ;q;0;15;15;3;q;1;0.9615503999957582;002;JWJL98x;2019_Dec_10_1326;iat_vr;59.939461145554276;
4;WASSER;Natur;q;0;16;16;11;q;1;0.71425370000361;002;JWJL98x;2019_Dec_10_1326;iat_vr;59.939461145554276;
4;STADT;Gemacht;p;0;17;17;16;p;1;0.8425637000036659;002;JWJL98x;2019_Dec_10_1326;iat_vr;59.939461145554276;
4;NEGATIV;negativ;q;0;18;18;2;q;1;1.2134168000047794;002;JWJL98x;2019_Dec_10_1326;iat_vr;59.939461145554276;
4;GEBÄUDE;Gemacht;p;0;19;19;15;p;1;1.0472144999948796;002;JWJL98x;2019_Dec_10_1326;iat_vr;59.939461145554276;
4;KLEIDER;Gemacht;p;1;0;20;17;q;0;0.862736600000062;002;JWJL98x;2019_Dec_10_1326;iat_vr;59.939461145554276;
4;GUT;positiv;p;1;1;21;9;p;1;1.4817792999965604;002;JWJL98x;2019_Dec_10_1326;iat_vr;59.939461145554276;
4;WASSER;Natur;q;1;2;22;11;q;1;1.0152297000022372;002;JWJL98x;2019_Dec_10_1326;iat_vr;59.939461145554276;
4;POSITIV;positiv;p;1;3;23;8;p;1;0.6681204999913462;002;JWJL98x;2019_Dec_10_1326;iat_vr;59.939461145554276;
4;BAUM;Natur;q;1;4;24;10;q;1;0.9985850999946706;002;JWJL98x;2019_Dec_10_1326;iat_vr;59.939461145554276;
4;GEBÄUDE;Gemacht;p;1;5;25;15;p;1;2.0813702999876114;002;JWJL98x;2019_Dec_10_1326;iat_vr;59.939461145554276;
4;AUSGEZEICHNET;positiv;p;1;6;26;5;p;1;0.7125578999985009;002;JWJL98x;2019_Dec_10_1326;iat_vr;59.939461145554276;
4;SCHÄDLICH;negativ;q;1;7;27;3;q;1;0.9611001000012038;002;JWJL98x;2019_Dec_10_1326;iat_vr;59.939461145554276;
4;BLUME;Natur;q;1;8;28;12;q;1;0.8485453000030247;002;JWJL98x;2019_Dec_10_1326;iat_vr;59.939461145554276;
4;LAMPE;Gemacht;p;1;9;29;19;p;1;0.9977045000123326;002;JWJL98x;2019_Dec_10_1326;iat_vr;59.939461145554276;
4;STADT;Gemacht;p;1;10;30;16;p;1;1.0833508999930928;002;JWJL98x;2019_Dec_10_1326;iat_vr;59.939461145554276;
4;SCHWACH;negativ;q;1;11;31;4;q;1;0.8477020999998786;002;JWJL98x;2019_Dec_10_1326;iat_vr;59.939461145554276;
4;STEIN;Natur;q;1;12;32;14;q;1;0.7986669000092661;002;JWJL98x;2019_Dec_10_1326;iat_vr;59.939461145554276;
4;COMPUTER;Gemacht;p;1;13;33;18;p;1;1.7767773999948986;002;JWJL98x;2019_Dec_10_1326;iat_vr;59.939461145554276;
4;EINWANDFREI;positiv;p;1;14;34;6;p;1;0.7283640999958152;002;JWJL98x;2019_Dec_10_1326;iat_vr;59.939461145554276;
4;SCHLIMM;negativ;q;1;15;35;0;q;1;0.8277686000074027;002;JWJL98x;2019_Dec_10_1326;iat_vr;59.939461145554276;
4;NEGATIV;negativ;q;1;16;36;2;q;1;0.6631269000063185;002;JWJL98x;2019_Dec_10_1326;iat_vr;59.939461145554276;
4;SCHLECHT;negativ;q;1;17;37;1;q;1;0.7479002999898512;002;JWJL98x;2019_Dec_10_1326;iat_vr;59.939461145554276;
4;TIER;Natur;q;1;18;38;13;p;0;0.8484949999983655;002;JWJL98x;2019_Dec_10_1326;iat_vr;59.939461145554276;
4;HERVORRAGEND;positiv;p;1;19;39;7;p;1;1.8448501999955624;002;JWJL98x;2019_Dec_10_1326;iat_vr;59.939461145554276;
;;;;;;;;;;;002;JWJL98x;2019_Dec_10_1326;iat_vr;59.939461145554276;
5;GEBÄUDE;Gemacht;q;0;0;0;5;q;1;1.5754614000034053;002;JWJL98x;2019_Dec_10_1326;iat_vr;59.939461145554276;
5;BLUME;Natur;p;0;1;1;2;p;1;0.6844070999941323;002;JWJL98x;2019_Dec_10_1326;iat_vr;59.939461145554276;
5;TIER;Natur;p;0;2;2;3;p;1;0.6158861000003526;002;JWJL98x;2019_Dec_10_1326;iat_vr;59.939461145554276;
5;BAUM;Natur;p;0;3;3;0;p;1;0.5839078999997582;002;JWJL98x;2019_Dec_10_1326;iat_vr;59.939461145554276;
5;WASSER;Natur;p;0;4;4;1;p;1;0.7480708000075538;002;JWJL98x;2019_Dec_10_1326;iat_vr;59.939461145554276;
5;STEIN;Natur;p;0;5;5;4;p;1;0.9340418999927351;002;JWJL98x;2019_Dec_10_1326;iat_vr;59.939461145554276;
5;STADT;Gemacht;q;0;6;6;6;q;1;0.9702320999931544;002;JWJL98x;2019_Dec_10_1326;iat_vr;59.939461145554276;
5;KLEIDER;Gemacht;q;0;7;7;7;q;1;0.6477242999972077;002;JWJL98x;2019_Dec_10_1326;iat_vr;59.939461145554276;
5;LAMPE;Gemacht;q;0;8;8;9;q;1;0.6968421000055969;002;JWJL98x;2019_Dec_10_1326;iat_vr;59.939461145554276;
5;COMPUTER;Gemacht;q;0;9;9;8;q;1;0.8958941000018967;002;JWJL98x;2019_Dec_10_1326;iat_vr;59.939461145554276;
5;GEBÄUDE;Gemacht;q;1;0;10;5;q;1;0.5969543000101112;002;JWJL98x;2019_Dec_10_1326;iat_vr;59.939461145554276;
5;TIER;Natur;p;1;1;11;3;p;1;0.9141948000033153;002;JWJL98x;2019_Dec_10_1326;iat_vr;59.939461145554276;
5;COMPUTER;Gemacht;q;1;2;12;8;q;1;0.8274443999980576;002;JWJL98x;2019_Dec_10_1326;iat_vr;59.939461145554276;
5;BAUM;Natur;p;1;3;13;0;p;1;0.5841670999943744;002;JWJL98x;2019_Dec_10_1326;iat_vr;59.939461145554276;
5;LAMPE;Gemacht;q;1;4;14;9;q;1;0.7314532000018517;002;JWJL98x;2019_Dec_10_1326;iat_vr;59.939461145554276;
5;BLUME;Natur;p;1;5;15;2;p;1;0.532048199995188;002;JWJL98x;2019_Dec_10_1326;iat_vr;59.939461145554276;
5;WASSER;Natur;p;1;6;16;1;p;1;0.6650367999973241;002;JWJL98x;2019_Dec_10_1326;iat_vr;59.939461145554276;
5;STEIN;Natur;p;1;7;17;4;p;1;0.9341800000111107;002;JWJL98x;2019_Dec_10_1326;iat_vr;59.939461145554276;
5;KLEIDER;Gemacht;q;1;8;18;7;q;1;0.8507594000111567;002;JWJL98x;2019_Dec_10_1326;iat_vr;59.939461145554276;
5;STADT;Gemacht;q;1;9;19;6;q;1;0.8456949000101304;002;JWJL98x;2019_Dec_10_1326;iat_vr;59.939461145554276;
;;;;;;;;;;;002;JWJL98x;2019_Dec_10_1326;iat_vr;59.939461145554276;
6;COMPUTER;Gemacht;q;0;0;0;8;q;1;1.120629099998041;002;JWJL98x;2019_Dec_10_1326;iat_vr;59.939461145554276;
6;LAMPE;Gemacht;q;0;1;1;9;q;1;0.6448558999982197;002;JWJL98x;2019_Dec_10_1326;iat_vr;59.939461145554276;
6;BAUM;Natur;p;0;2;2;0;q;0;0.6115056999988155;002;JWJL98x;2019_Dec_10_1326;iat_vr;59.939461145554276;
6;STEIN;Natur;p;0;3;3;4;p;1;0.9815162000013515;002;JWJL98x;2019_Dec_10_1326;iat_vr;59.939461145554276;
6;STADT;Gemacht;q;0;4;4;6;q;1;1.2787622999894666;002;JWJL98x;2019_Dec_10_1326;iat_vr;59.939461145554276;
6;NEGATIV;negativ;q;0;5;5;12;q;1;1.1618261000112398;002;JWJL98x;2019_Dec_10_1326;iat_vr;59.939461145554276;
6;GEBÄUDE;Gemacht;q;0;6;6;5;q;1;1.1668772000120953;002;JWJL98x;2019_Dec_10_1326;iat_vr;59.939461145554276;
6;EINWANDFREI;positiv;p;0;7;7;16;p;1;1.1502279999986058;002;JWJL98x;2019_Dec_10_1326;iat_vr;59.939461145554276;
6;POSITIV;positiv;p;0;8;8;18;p;1;0.5025886000075843;002;JWJL98x;2019_Dec_10_1326;iat_vr;59.939461145554276;
6;TIER;Natur;p;0;9;9;3;p;1;0.5486876999930246;002;JWJL98x;2019_Dec_10_1326;iat_vr;59.939461145554276;
6;KLEIDER;Gemacht;q;0;10;10;7;q;1;0.9138384999969276;002;JWJL98x;2019_Dec_10_1326;iat_vr;59.939461145554276;
6;BLUME;Natur;p;0;11;11;2;p;1;0.7803626999957487;002;JWJL98x;2019_Dec_10_1326;iat_vr;59.939461145554276;
6;AUSGEZEICHNET;positiv;p;0;12;12;15;p;1;0.5779023000068264;002;JWJL98x;2019_Dec_10_1326;iat_vr;59.939461145554276;
6;SCHÄDLICH;negativ;q;0;13;13;13;q;1;1.1116661999985809;002;JWJL98x;2019_Dec_10_1326;iat_vr;59.939461145554276;
6;GUT;positiv;p;0;14;14;19;p;1;0.8318719000089914;002;JWJL98x;2019_Dec_10_1326;iat_vr;59.939461145554276;
6;SCHLIMM;negativ;q;0;15;15;10;q;1;0.8474466000043321;002;JWJL98x;2019_Dec_10_1326;iat_vr;59.939461145554276;
6;SCHWACH;negativ;q;0;16;16;14;q;1;0.6616661000007298;002;JWJL98x;2019_Dec_10_1326;iat_vr;59.939461145554276;
6;SCHLECHT;negativ;q;0;17;17;11;q;1;0.897801699989941;002;JWJL98x;2019_Dec_10_1326;iat_vr;59.939461145554276;
6;WASSER;Natur;p;0;18;18;1;p;1;0.6464173999993363;002;JWJL98x;2019_Dec_10_1326;iat_vr;59.939461145554276;
6;HERVORRAGEND;positiv;p;0;19;19;17;p;1;0.7451482000033138;002;JWJL98x;2019_Dec_10_1326;iat_vr;59.939461145554276;
;;;;;;;;;;;002;JWJL98x;2019_Dec_10_1326;iat_vr;59.939461145554276;
7;KLEIDER;Gemacht;q;0;0;0;7;q;1;0.8268766999972286;002;JWJL98x;2019_Dec_10_1326;iat_vr;59.939461145554276;
7;BLUME;Natur;p;0;1;1;2;p;1;0.7143497999932151;002;JWJL98x;2019_Dec_10_1326;iat_vr;59.939461145554276;
7;BAUM;Natur;p;0;2;2;0;p;1;0.6324223999981768;002;JWJL98x;2019_Dec_10_1326;iat_vr;59.939461145554276;
7;TIER;Natur;p;0;3;3;3;p;1;1.0975558000063756;002;JWJL98x;2019_Dec_10_1326;iat_vr;59.939461145554276;
7;LAMPE;Gemacht;q;0;4;4;9;q;1;0.9316442999988794;002;JWJL98x;2019_Dec_10_1326;iat_vr;59.939461145554276;
7;EINWANDFREI;positiv;p;0;5;5;16;p;1;0.7447728999977699;002;JWJL98x;2019_Dec_10_1326;iat_vr;59.939461145554276;
7;NEGATIV;negativ;q;0;6;6;12;q;1;0.6318199999950593;002;JWJL98x;2019_Dec_10_1326;iat_vr;59.939461145554276;
7;SCHLECHT;negativ;q;0;7;7;11;q;1;0.6811221000098158;002;JWJL98x;2019_Dec_10_1326;iat_vr;59.939461145554276;
7;HERVORRAGEND;positiv;p;0;8;8;17;p;1;0.8139345000090543;002;JWJL98x;2019_Dec_10_1326;iat_vr;59.939461145554276;
7;SCHÄDLICH;negativ;q;0;9;9;13;q;1;0.8798485999868717;002;JWJL98x;2019_Dec_10_1326;iat_vr;59.939461145554276;
7;STEIN;Natur;p;0;10;10;4;p;1;1.0814321000070777;002;JWJL98x;2019_Dec_10_1326;iat_vr;59.939461145554276;
7;POSITIV;positiv;p;0;11;11;18;p;1;0.6293261999962851;002;JWJL98x;2019_Dec_10_1326;iat_vr;59.939461145554276;
7;WASSER;Natur;p;0;12;12;1;p;1;0.5483382999955211;002;JWJL98x;2019_Dec_10_1326;iat_vr;59.939461145554276;
7;SCHWACH;negativ;q;0;13;13;14;q;1;0.6486508000089088;002;JWJL98x;2019_Dec_10_1326;iat_vr;59.939461145554276;
7;AUSGEZEICHNET;positiv;p;0;14;14;15;p;1;0.6624786000029417;002;JWJL98x;2019_Dec_10_1326;iat_vr;59.939461145554276;
7;GEBÄUDE;Gemacht;q;0;15;15;5;q;1;0.6610636999976123;002;JWJL98x;2019_Dec_10_1326;iat_vr;59.939461145554276;
7;STADT;Gemacht;q;0;16;16;6;q;1;0.9811926999973366;002;JWJL98x;2019_Dec_10_1326;iat_vr;59.939461145554276;
7;SCHLIMM;negativ;q;0;17;17;10;q;1;0.747440999999526;002;JWJL98x;2019_Dec_10_1326;iat_vr;59.939461145554276;
7;COMPUTER;Gemacht;q;0;18;18;8;q;1;0.9971809999988182;002;JWJL98x;2019_Dec_10_1326;iat_vr;59.939461145554276;
7;GUT;positiv;p;0;19;19;19;p;1;0.6157357999909436;002;JWJL98x;2019_Dec_10_1326;iat_vr;59.939461145554276;
7;LAMPE;Gemacht;q;1;0;20;9;q;1;0.6317229999986012;002;JWJL98x;2019_Dec_10_1326;iat_vr;59.939461145554276;
7;STEIN;Natur;p;1;1;21;4;p;1;0.7192682000022614;002;JWJL98x;2019_Dec_10_1326;iat_vr;59.939461145554276;
7;STADT;Gemacht;q;1;2;22;6;q;1;0.747570799998357;002;JWJL98x;2019_Dec_10_1326;iat_vr;59.939461145554276;
7;GUT;positiv;p;1;3;23;19;p;1;0.6985431999928551;002;JWJL98x;2019_Dec_10_1326;iat_vr;59.939461145554276;
7;SCHLECHT;negativ;q;1;4;24;11;q;1;0.7136891999980435;002;JWJL98x;2019_Dec_10_1326;iat_vr;59.939461145554276;
7;POSITIV;positiv;p;1;5;25;18;p;1;0.5975534000026528;002;JWJL98x;2019_Dec_10_1326;iat_vr;59.939461145554276;
7;TIER;Natur;p;1;6;26;3;p;1;0.9483635999931721;002;JWJL98x;2019_Dec_10_1326;iat_vr;59.939461145554276;
7;GEBÄUDE;Gemacht;q;1;7;27;5;q;1;0.6449856999970507;002;JWJL98x;2019_Dec_10_1326;iat_vr;59.939461145554276;
7;HERVORRAGEND;positiv;p;1;8;28;17;p;1;0.9454946999903768;002;JWJL98x;2019_Dec_10_1326;iat_vr;59.939461145554276;
7;COMPUTER;Gemacht;q;1;9;29;8;q;1;1.3451094000047306;002;JWJL98x;2019_Dec_10_1326;iat_vr;59.939461145554276;
7;BAUM;Natur;p;1;10;30;0;p;1;0.6480162999941967;002;JWJL98x;2019_Dec_10_1326;iat_vr;59.939461145554276;
7;AUSGEZEICHNET;positiv;p;1;11;31;15;p;1;0.7787848000007216;002;JWJL98x;2019_Dec_10_1326;iat_vr;59.939461145554276;
7;BLUME;Natur;p;1;12;32;2;p;1;1.014400799991563;002;JWJL98x;2019_Dec_10_1326;iat_vr;59.939461145554276;
7;SCHWACH;negativ;q;1;13;33;14;q;1;0.6141560000105528;002;JWJL98x;2019_Dec_10_1326;iat_vr;59.939461145554276;
7;SCHLIMM;negativ;q;1;14;34;10;q;1;0.7137293999985559;002;JWJL98x;2019_Dec_10_1326;iat_vr;59.939461145554276;
7;WASSER;Natur;p;1;15;35;1;p;1;0.6650077999947825;002;JWJL98x;2019_Dec_10_1326;iat_vr;59.939461145554276;
7;EINWANDFREI;positiv;p;1;16;36;16;p;1;0.5843556999898283;002;JWJL98x;2019_Dec_10_1326;iat_vr;59.939461145554276;
7;SCHÄDLICH;negativ;q;1;17;37;13;q;1;0.6966943999868818;002;JWJL98x;2019_Dec_10_1326;iat_vr;59.939461145554276;
7;KLEIDER;Gemacht;q;1;18;38;7;q;1;1.080548900004942;002;JWJL98x;2019_Dec_10_1326;iat_vr;59.939461145554276;
7;NEGATIV;negativ;q;1;19;39;12;q;1;0.6473694000014802;002;JWJL98x;2019_Dec_10_1326;iat_vr;59.939461145554276;
;;;;;;;;;;;002;JWJL98x;2019_Dec_10_1326;iat_vr;59.939461145554276;
