Block;Word;Category;CorrResp;trials.thisRepN;trials.thisTrialN;trials.thisN;trials.thisIndex;key_resp_2.keys;key_resp_2.corr;key_resp_2.rt;session;participant;date;expName;frameRate;
1;BAUM;Natur;q;0;0;0;0;q;1;0.8203210000065155;002;JWLB98x;2019_Dec_12_0828;iat_vr;59.48019071307155;
1;STADT;Gemacht;p;0;1;1;6;p;1;0.6902245999954175;002;JWLB98x;2019_Dec_12_0828;iat_vr;59.48019071307155;
1;GEBÄUDE;Gemacht;p;0;2;2;5;p;1;0.8026592000096571;002;JWLB98x;2019_Dec_12_0828;iat_vr;59.48019071307155;
1;BLUME;Natur;q;0;3;3;2;q;1;0.628261299978476;002;JWLB98x;2019_Dec_12_0828;iat_vr;59.48019071307155;
1;KLEIDER;Gemacht;p;0;4;4;7;p;1;0.87402970000403;002;JWLB98x;2019_Dec_12_0828;iat_vr;59.48019071307155;
1;WASSER;Natur;q;0;5;5;1;q;1;0.712331400020048;002;JWLB98x;2019_Dec_12_0828;iat_vr;59.48019071307155;
1;TIER;Natur;q;0;6;6;3;q;1;1.0818670000007842;002;JWLB98x;2019_Dec_12_0828;iat_vr;59.48019071307155;
1;LAMPE;Gemacht;p;0;7;7;9;p;1;0.7762616999971215;002;JWLB98x;2019_Dec_12_0828;iat_vr;59.48019071307155;
1;COMPUTER;Gemacht;p;0;8;8;8;p;1;0.8467241000034846;002;JWLB98x;2019_Dec_12_0828;iat_vr;59.48019071307155;
1;STEIN;Natur;q;0;9;9;4;q;1;0.793993600003887;002;JWLB98x;2019_Dec_12_0828;iat_vr;59.48019071307155;
1;BAUM;Natur;q;1;0;10;0;q;1;0.8157776000152808;002;JWLB98x;2019_Dec_12_0828;iat_vr;59.48019071307155;
1;GEBÄUDE;Gemacht;p;1;1;11;5;p;1;0.7648333000252023;002;JWLB98x;2019_Dec_12_0828;iat_vr;59.48019071307155;
1;BLUME;Natur;q;1;2;12;2;q;1;0.7484234000148717;002;JWLB98x;2019_Dec_12_0828;iat_vr;59.48019071307155;
1;KLEIDER;Gemacht;p;1;3;13;7;p;1;0.8133351000142284;002;JWLB98x;2019_Dec_12_0828;iat_vr;59.48019071307155;
1;STADT;Gemacht;p;1;4;14;6;p;1;0.6649131000158377;002;JWLB98x;2019_Dec_12_0828;iat_vr;59.48019071307155;
1;LAMPE;Gemacht;p;1;5;15;9;p;1;0.6024939999915659;002;JWLB98x;2019_Dec_12_0828;iat_vr;59.48019071307155;
1;COMPUTER;Gemacht;p;1;6;16;8;p;1;0.7806894999812357;002;JWLB98x;2019_Dec_12_0828;iat_vr;59.48019071307155;
1;WASSER;Natur;q;1;7;17;1;q;1;0.7817644999886397;002;JWLB98x;2019_Dec_12_0828;iat_vr;59.48019071307155;
1;STEIN;Natur;q;1;8;18;4;q;1;0.6474569000129122;002;JWLB98x;2019_Dec_12_0828;iat_vr;59.48019071307155;
1;TIER;Natur;q;1;9;19;3;q;1;0.6151603999896906;002;JWLB98x;2019_Dec_12_0828;iat_vr;59.48019071307155;
;;;;;;;;;;;002;JWLB98x;2019_Dec_12_0828;iat_vr;59.48019071307155;
2;SCHÄDLICH;negativ;q;0;0;0;3;q;1;0.7766562000033446;002;JWLB98x;2019_Dec_12_0828;iat_vr;59.48019071307155;
2;SCHWACH;negativ;q;0;1;1;4;q;1;0.5298649999895133;002;JWLB98x;2019_Dec_12_0828;iat_vr;59.48019071307155;
2;AUSGEZEICHNET;positiv;p;0;2;2;5;p;1;0.5905110999883618;002;JWLB98x;2019_Dec_12_0828;iat_vr;59.48019071307155;
2;HERVORRAGEND;positiv;p;0;3;3;7;p;1;0.5255734999955166;002;JWLB98x;2019_Dec_12_0828;iat_vr;59.48019071307155;
2;POSITIV;positiv;p;0;4;4;8;p;1;0.5440603999886662;002;JWLB98x;2019_Dec_12_0828;iat_vr;59.48019071307155;
2;SCHLIMM;negativ;q;0;5;5;0;q;1;0.6519367000146303;002;JWLB98x;2019_Dec_12_0828;iat_vr;59.48019071307155;
2;EINWANDFREI;positiv;p;0;6;6;6;p;1;0.7101430000038818;002;JWLB98x;2019_Dec_12_0828;iat_vr;59.48019071307155;
2;GUT;positiv;p;0;7;7;9;p;1;0.581443599978229;002;JWLB98x;2019_Dec_12_0828;iat_vr;59.48019071307155;
2;NEGATIV;negativ;q;0;8;8;2;q;1;0.597515100002056;002;JWLB98x;2019_Dec_12_0828;iat_vr;59.48019071307155;
2;SCHLECHT;negativ;q;0;9;9;1;q;1;0.6687464000133332;002;JWLB98x;2019_Dec_12_0828;iat_vr;59.48019071307155;
2;EINWANDFREI;positiv;p;1;0;10;6;p;1;0.6277164999919478;002;JWLB98x;2019_Dec_12_0828;iat_vr;59.48019071307155;
2;SCHWACH;negativ;q;1;1;11;4;q;1;0.9482281999953557;002;JWLB98x;2019_Dec_12_0828;iat_vr;59.48019071307155;
2;AUSGEZEICHNET;positiv;p;1;2;12;5;p;1;0.6620147999783512;002;JWLB98x;2019_Dec_12_0828;iat_vr;59.48019071307155;
2;HERVORRAGEND;positiv;p;1;3;13;7;p;1;0.609460699983174;002;JWLB98x;2019_Dec_12_0828;iat_vr;59.48019071307155;
2;NEGATIV;negativ;q;1;4;14;2;q;1;0.629723499994725;002;JWLB98x;2019_Dec_12_0828;iat_vr;59.48019071307155;
2;SCHLECHT;negativ;q;1;5;15;1;q;1;0.547924900020007;002;JWLB98x;2019_Dec_12_0828;iat_vr;59.48019071307155;
2;GUT;positiv;p;1;6;16;9;p;1;0.5995207000232767;002;JWLB98x;2019_Dec_12_0828;iat_vr;59.48019071307155;
2;POSITIV;positiv;p;1;7;17;8;p;1;0.5989098999998532;002;JWLB98x;2019_Dec_12_0828;iat_vr;59.48019071307155;
2;SCHÄDLICH;negativ;q;1;8;18;3;q;1;0.5448679999972228;002;JWLB98x;2019_Dec_12_0828;iat_vr;59.48019071307155;
2;SCHLIMM;negativ;q;1;9;19;0;q;1;0.49754769998253323;002;JWLB98x;2019_Dec_12_0828;iat_vr;59.48019071307155;
;;;;;;;;;;;002;JWLB98x;2019_Dec_12_0828;iat_vr;59.48019071307155;
3;WASSER;Natur;q;0;0;0;11;q;1;1.4207508999970742;002;JWLB98x;2019_Dec_12_0828;iat_vr;59.48019071307155;
3;POSITIV;positiv;p;0;1;1;8;p;1;1.146764000004623;002;JWLB98x;2019_Dec_12_0828;iat_vr;59.48019071307155;
3;SCHLECHT;negativ;q;0;2;2;1;q;1;0.7810276999953203;002;JWLB98x;2019_Dec_12_0828;iat_vr;59.48019071307155;
3;GEBÄUDE;Gemacht;p;0;3;3;15;p;1;0.8480363999842666;002;JWLB98x;2019_Dec_12_0828;iat_vr;59.48019071307155;
3;BLUME;Natur;q;0;4;4;12;q;1;0.7633916999911889;002;JWLB98x;2019_Dec_12_0828;iat_vr;59.48019071307155;
3;BAUM;Natur;q;0;5;5;10;q;1;2.715609199978644;002;JWLB98x;2019_Dec_12_0828;iat_vr;59.48019071307155;
3;KLEIDER;Gemacht;p;0;6;6;17;p;1;0.7145634999906179;002;JWLB98x;2019_Dec_12_0828;iat_vr;59.48019071307155;
3;GUT;positiv;p;0;7;7;9;p;1;1.382199199986644;002;JWLB98x;2019_Dec_12_0828;iat_vr;59.48019071307155;
3;TIER;Natur;q;0;8;8;13;q;1;0.6686121000093408;002;JWLB98x;2019_Dec_12_0828;iat_vr;59.48019071307155;
3;HERVORRAGEND;positiv;p;0;9;9;7;p;1;0.878783599997405;002;JWLB98x;2019_Dec_12_0828;iat_vr;59.48019071307155;
3;NEGATIV;negativ;q;0;10;10;2;q;1;0.6813510000065435;002;JWLB98x;2019_Dec_12_0828;iat_vr;59.48019071307155;
3;COMPUTER;Gemacht;p;0;11;11;18;p;1;0.8794344000052661;002;JWLB98x;2019_Dec_12_0828;iat_vr;59.48019071307155;
3;SCHÄDLICH;negativ;q;0;12;12;3;q;1;0.9638393000059295;002;JWLB98x;2019_Dec_12_0828;iat_vr;59.48019071307155;
3;SCHLIMM;negativ;q;0;13;13;0;q;1;0.6469678999856114;002;JWLB98x;2019_Dec_12_0828;iat_vr;59.48019071307155;
3;STEIN;Natur;q;0;14;14;14;q;1;0.5491702999861445;002;JWLB98x;2019_Dec_12_0828;iat_vr;59.48019071307155;
3;STADT;Gemacht;p;0;15;15;16;p;1;0.5990221999818459;002;JWLB98x;2019_Dec_12_0828;iat_vr;59.48019071307155;
3;SCHWACH;negativ;q;0;16;16;4;q;1;1.0817550000210758;002;JWLB98x;2019_Dec_12_0828;iat_vr;59.48019071307155;
3;LAMPE;Gemacht;p;0;17;17;19;p;1;0.9313279000052717;002;JWLB98x;2019_Dec_12_0828;iat_vr;59.48019071307155;
3;AUSGEZEICHNET;positiv;p;0;18;18;5;p;1;0.4949198999966029;002;JWLB98x;2019_Dec_12_0828;iat_vr;59.48019071307155;
3;EINWANDFREI;positiv;p;0;19;19;6;p;1;0.8441708000027575;002;JWLB98x;2019_Dec_12_0828;iat_vr;59.48019071307155;
;;;;;;;;;;;002;JWLB98x;2019_Dec_12_0828;iat_vr;59.48019071307155;
4;TIER;Natur;q;0;0;0;13;q;1;1.167866799980402;002;JWLB98x;2019_Dec_12_0828;iat_vr;59.48019071307155;
4;LAMPE;Gemacht;p;0;1;1;19;p;1;0.9154722999955993;002;JWLB98x;2019_Dec_12_0828;iat_vr;59.48019071307155;
4;POSITIV;positiv;p;0;2;2;8;p;1;0.49757820001104847;002;JWLB98x;2019_Dec_12_0828;iat_vr;59.48019071307155;
4;EINWANDFREI;positiv;p;0;3;3;6;p;1;0.6113245000015013;002;JWLB98x;2019_Dec_12_0828;iat_vr;59.48019071307155;
4;SCHWACH;negativ;q;0;4;4;4;q;1;0.7020250000059605;002;JWLB98x;2019_Dec_12_0828;iat_vr;59.48019071307155;
4;BLUME;Natur;q;0;5;5;12;q;1;1.0484355999797117;002;JWLB98x;2019_Dec_12_0828;iat_vr;59.48019071307155;
4;STEIN;Natur;q;0;6;6;14;q;1;0.5796258999907877;002;JWLB98x;2019_Dec_12_0828;iat_vr;59.48019071307155;
4;SCHÄDLICH;negativ;q;0;7;7;3;q;1;0.5808702000067569;002;JWLB98x;2019_Dec_12_0828;iat_vr;59.48019071307155;
4;GEBÄUDE;Gemacht;p;0;8;8;15;p;1;0.5950438999861944;002;JWLB98x;2019_Dec_12_0828;iat_vr;59.48019071307155;
4;WASSER;Natur;q;0;9;9;11;q;1;0.6813504000019748;002;JWLB98x;2019_Dec_12_0828;iat_vr;59.48019071307155;
4;STADT;Gemacht;p;0;10;10;16;p;1;0.6303696000250056;002;JWLB98x;2019_Dec_12_0828;iat_vr;59.48019071307155;
4;SCHLIMM;negativ;q;0;11;11;0;q;1;0.6618610000004992;002;JWLB98x;2019_Dec_12_0828;iat_vr;59.48019071307155;
4;COMPUTER;Gemacht;p;0;12;12;18;p;1;1.280030199995963;002;JWLB98x;2019_Dec_12_0828;iat_vr;59.48019071307155;
4;BAUM;Natur;q;0;13;13;10;q;1;0.982904399977997;002;JWLB98x;2019_Dec_12_0828;iat_vr;59.48019071307155;
4;GUT;positiv;p;0;14;14;9;q;0;0.5663500999798998;002;JWLB98x;2019_Dec_12_0828;iat_vr;59.48019071307155;
4;SCHLECHT;negativ;q;0;15;15;1;q;1;1.1281753999937791;002;JWLB98x;2019_Dec_12_0828;iat_vr;59.48019071307155;
4;AUSGEZEICHNET;positiv;p;0;16;16;5;p;1;0.6917563999886625;002;JWLB98x;2019_Dec_12_0828;iat_vr;59.48019071307155;
4;NEGATIV;negativ;q;0;17;17;2;q;1;0.7154068000090774;002;JWLB98x;2019_Dec_12_0828;iat_vr;59.48019071307155;
4;HERVORRAGEND;positiv;p;0;18;18;7;p;1;0.7613554999988992;002;JWLB98x;2019_Dec_12_0828;iat_vr;59.48019071307155;
4;KLEIDER;Gemacht;p;0;19;19;17;p;1;1.065404299995862;002;JWLB98x;2019_Dec_12_0828;iat_vr;59.48019071307155;
4;COMPUTER;Gemacht;p;1;0;20;18;p;1;0.6481613999931142;002;JWLB98x;2019_Dec_12_0828;iat_vr;59.48019071307155;
4;HERVORRAGEND;positiv;p;1;1;21;7;p;1;0.6465805000043474;002;JWLB98x;2019_Dec_12_0828;iat_vr;59.48019071307155;
4;STEIN;Natur;q;1;2;22;14;q;1;0.6487741000019014;002;JWLB98x;2019_Dec_12_0828;iat_vr;59.48019071307155;
4;BLUME;Natur;q;1;3;23;12;q;1;0.8154935999773443;002;JWLB98x;2019_Dec_12_0828;iat_vr;59.48019071307155;
4;POSITIV;positiv;p;1;4;24;8;p;1;0.633478899981128;002;JWLB98x;2019_Dec_12_0828;iat_vr;59.48019071307155;
4;TIER;Natur;q;1;5;25;13;q;1;0.8821523000078741;002;JWLB98x;2019_Dec_12_0828;iat_vr;59.48019071307155;
4;KLEIDER;Gemacht;p;1;6;26;17;p;1;0.9312229999923147;002;JWLB98x;2019_Dec_12_0828;iat_vr;59.48019071307155;
4;LAMPE;Gemacht;p;1;7;27;19;p;1;0.6652793000102974;002;JWLB98x;2019_Dec_12_0828;iat_vr;59.48019071307155;
4;BAUM;Natur;q;1;8;28;10;q;1;1.9835955000016838;002;JWLB98x;2019_Dec_12_0828;iat_vr;59.48019071307155;
4;EINWANDFREI;positiv;p;1;9;29;6;p;1;0.7005708000215236;002;JWLB98x;2019_Dec_12_0828;iat_vr;59.48019071307155;
4;SCHWACH;negativ;q;1;10;30;4;q;1;0.596335199981695;002;JWLB98x;2019_Dec_12_0828;iat_vr;59.48019071307155;
4;SCHÄDLICH;negativ;q;1;11;31;3;q;1;0.6969291999994311;002;JWLB98x;2019_Dec_12_0828;iat_vr;59.48019071307155;
4;SCHLIMM;negativ;q;1;12;32;0;q;1;0.5305665000050794;002;JWLB98x;2019_Dec_12_0828;iat_vr;59.48019071307155;
4;SCHLECHT;negativ;q;1;13;33;1;q;1;0.5146979999844916;002;JWLB98x;2019_Dec_12_0828;iat_vr;59.48019071307155;
4;NEGATIV;negativ;q;1;14;34;2;q;1;0.5515263999986928;002;JWLB98x;2019_Dec_12_0828;iat_vr;59.48019071307155;
4;GUT;positiv;p;1;15;35;9;p;1;0.5303561000037007;002;JWLB98x;2019_Dec_12_0828;iat_vr;59.48019071307155;
4;STADT;Gemacht;p;1;16;36;16;p;1;0.6319127999886405;002;JWLB98x;2019_Dec_12_0828;iat_vr;59.48019071307155;
4;WASSER;Natur;q;1;17;37;11;q;1;0.9013924000028055;002;JWLB98x;2019_Dec_12_0828;iat_vr;59.48019071307155;
4;AUSGEZEICHNET;positiv;p;1;18;38;5;p;1;0.8356953999900725;002;JWLB98x;2019_Dec_12_0828;iat_vr;59.48019071307155;
4;GEBÄUDE;Gemacht;p;1;19;39;15;p;1;0.792823399999179;002;JWLB98x;2019_Dec_12_0828;iat_vr;59.48019071307155;
;;;;;;;;;;;002;JWLB98x;2019_Dec_12_0828;iat_vr;59.48019071307155;
5;LAMPE;Gemacht;q;0;0;0;9;p;0;1.1463189999922179;002;JWLB98x;2019_Dec_12_0828;iat_vr;59.48019071307155;
5;WASSER;Natur;p;0;1;1;1;p;1;1.6809918999788351;002;JWLB98x;2019_Dec_12_0828;iat_vr;59.48019071307155;
5;BLUME;Natur;p;0;2;2;2;p;1;1.2499584000033792;002;JWLB98x;2019_Dec_12_0828;iat_vr;59.48019071307155;
5;STADT;Gemacht;q;0;3;3;6;q;1;0.8316775000130292;002;JWLB98x;2019_Dec_12_0828;iat_vr;59.48019071307155;
5;BAUM;Natur;p;0;4;4;0;p;1;1.3522207000060007;002;JWLB98x;2019_Dec_12_0828;iat_vr;59.48019071307155;
5;STEIN;Natur;p;0;5;5;4;p;1;0.6131869999808259;002;JWLB98x;2019_Dec_12_0828;iat_vr;59.48019071307155;
5;TIER;Natur;p;0;6;6;3;p;1;0.6157352000009269;002;JWLB98x;2019_Dec_12_0828;iat_vr;59.48019071307155;
5;GEBÄUDE;Gemacht;q;0;7;7;5;q;1;0.647026199992979;002;JWLB98x;2019_Dec_12_0828;iat_vr;59.48019071307155;
5;KLEIDER;Gemacht;q;0;8;8;7;q;1;0.5482923999952618;002;JWLB98x;2019_Dec_12_0828;iat_vr;59.48019071307155;
5;COMPUTER;Gemacht;q;0;9;9;8;q;1;0.8448298000148498;002;JWLB98x;2019_Dec_12_0828;iat_vr;59.48019071307155;
5;GEBÄUDE;Gemacht;q;1;0;10;5;q;1;0.5628302000113763;002;JWLB98x;2019_Dec_12_0828;iat_vr;59.48019071307155;
5;TIER;Natur;p;1;1;11;3;p;1;0.8806852000125218;002;JWLB98x;2019_Dec_12_0828;iat_vr;59.48019071307155;
5;WASSER;Natur;p;1;2;12;1;p;1;0.5136207999894395;002;JWLB98x;2019_Dec_12_0828;iat_vr;59.48019071307155;
5;BAUM;Natur;p;1;3;13;0;p;1;0.5994920000084676;002;JWLB98x;2019_Dec_12_0828;iat_vr;59.48019071307155;
5;LAMPE;Gemacht;q;1;4;14;9;q;1;0.7151703000126872;002;JWLB98x;2019_Dec_12_0828;iat_vr;59.48019071307155;
5;KLEIDER;Gemacht;q;1;5;15;7;q;1;0.5302423000102863;002;JWLB98x;2019_Dec_12_0828;iat_vr;59.48019071307155;
5;COMPUTER;Gemacht;q;1;6;16;8;q;1;0.6618950999982189;002;JWLB98x;2019_Dec_12_0828;iat_vr;59.48019071307155;
5;BLUME;Natur;p;1;7;17;2;p;1;0.582594200008316;002;JWLB98x;2019_Dec_12_0828;iat_vr;59.48019071307155;
5;STEIN;Natur;p;1;8;18;4;p;1;0.3655317999946419;002;JWLB98x;2019_Dec_12_0828;iat_vr;59.48019071307155;
5;STADT;Gemacht;q;1;9;19;6;q;1;0.7799838999926578;002;JWLB98x;2019_Dec_12_0828;iat_vr;59.48019071307155;
;;;;;;;;;;;002;JWLB98x;2019_Dec_12_0828;iat_vr;59.48019071307155;
6;HERVORRAGEND;positiv;p;0;0;0;17;p;1;1.2466963000188116;002;JWLB98x;2019_Dec_12_0828;iat_vr;59.48019071307155;
6;SCHWACH;negativ;q;0;1;1;14;q;1;0.9152775999973528;002;JWLB98x;2019_Dec_12_0828;iat_vr;59.48019071307155;
6;COMPUTER;Gemacht;q;0;2;2;8;q;1;1.629788299993379;002;JWLB98x;2019_Dec_12_0828;iat_vr;59.48019071307155;
6;POSITIV;positiv;p;0;3;3;18;q;0;0.5458611999929417;002;JWLB98x;2019_Dec_12_0828;iat_vr;59.48019071307155;
6;AUSGEZEICHNET;positiv;p;0;4;4;15;p;1;0.6772565999999642;002;JWLB98x;2019_Dec_12_0828;iat_vr;59.48019071307155;
6;EINWANDFREI;positiv;p;0;5;5;16;p;1;0.6949160000076517;002;JWLB98x;2019_Dec_12_0828;iat_vr;59.48019071307155;
6;KLEIDER;Gemacht;q;0;6;6;7;q;1;0.763642300007632;002;JWLB98x;2019_Dec_12_0828;iat_vr;59.48019071307155;
6;BLUME;Natur;p;0;7;7;2;p;1;0.8151767000090331;002;JWLB98x;2019_Dec_12_0828;iat_vr;59.48019071307155;
6;SCHÄDLICH;negativ;q;0;8;8;13;q;1;0.8136962999997195;002;JWLB98x;2019_Dec_12_0828;iat_vr;59.48019071307155;
6;NEGATIV;negativ;q;0;9;9;12;q;1;0.5825146999850404;002;JWLB98x;2019_Dec_12_0828;iat_vr;59.48019071307155;
6;BAUM;Natur;p;0;10;10;0;p;1;0.7192094000056386;002;JWLB98x;2019_Dec_12_0828;iat_vr;59.48019071307155;
6;STEIN;Natur;p;0;11;11;4;p;1;0.8140241999935824;002;JWLB98x;2019_Dec_12_0828;iat_vr;59.48019071307155;
6;TIER;Natur;p;0;12;12;3;p;1;0.6826530999969691;002;JWLB98x;2019_Dec_12_0828;iat_vr;59.48019071307155;
6;WASSER;Natur;p;0;13;13;1;p;1;0.6318699000112247;002;JWLB98x;2019_Dec_12_0828;iat_vr;59.48019071307155;
6;STADT;Gemacht;q;0;14;14;6;p;0;0.66493139998056;002;JWLB98x;2019_Dec_12_0828;iat_vr;59.48019071307155;
6;SCHLECHT;negativ;q;0;15;15;11;q;1;0.6804306999838445;002;JWLB98x;2019_Dec_12_0828;iat_vr;59.48019071307155;
6;GUT;positiv;p;0;16;16;19;p;1;0.7192922999965958;002;JWLB98x;2019_Dec_12_0828;iat_vr;59.48019071307155;
6;SCHLIMM;negativ;q;0;17;17;10;q;1;0.7980925000156276;002;JWLB98x;2019_Dec_12_0828;iat_vr;59.48019071307155;
6;LAMPE;Gemacht;q;0;18;18;9;q;1;1.4975868000183254;002;JWLB98x;2019_Dec_12_0828;iat_vr;59.48019071307155;
6;GEBÄUDE;Gemacht;q;0;19;19;5;q;1;1.0478904999908991;002;JWLB98x;2019_Dec_12_0828;iat_vr;59.48019071307155;
;;;;;;;;;;;002;JWLB98x;2019_Dec_12_0828;iat_vr;59.48019071307155;
7;BLUME;Natur;p;0;0;0;2;p;1;0.8715022999967914;002;JWLB98x;2019_Dec_12_0828;iat_vr;59.48019071307155;
7;EINWANDFREI;positiv;p;0;1;1;16;p;1;0.6786966999934521;002;JWLB98x;2019_Dec_12_0828;iat_vr;59.48019071307155;
7;COMPUTER;Gemacht;q;0;2;2;8;q;1;0.6462228000164032;002;JWLB98x;2019_Dec_12_0828;iat_vr;59.48019071307155;
7;WASSER;Natur;p;0;3;3;1;p;1;0.8810388999991119;002;JWLB98x;2019_Dec_12_0828;iat_vr;59.48019071307155;
7;TIER;Natur;p;0;4;4;3;p;1;0.6988530999806244;002;JWLB98x;2019_Dec_12_0828;iat_vr;59.48019071307155;
7;GEBÄUDE;Gemacht;q;0;5;5;5;q;1;0.6858940999954939;002;JWLB98x;2019_Dec_12_0828;iat_vr;59.48019071307155;
7;STEIN;Natur;p;0;6;6;4;p;1;0.7813476999872364;002;JWLB98x;2019_Dec_12_0828;iat_vr;59.48019071307155;
7;GUT;positiv;p;0;7;7;19;p;1;0.7660194000054616;002;JWLB98x;2019_Dec_12_0828;iat_vr;59.48019071307155;
7;SCHÄDLICH;negativ;q;0;8;8;13;q;1;0.6462473999999929;002;JWLB98x;2019_Dec_12_0828;iat_vr;59.48019071307155;
7;KLEIDER;Gemacht;q;0;9;9;7;q;1;0.5983963000180665;002;JWLB98x;2019_Dec_12_0828;iat_vr;59.48019071307155;
7;SCHLECHT;negativ;q;0;10;10;11;q;1;0.6181512999755796;002;JWLB98x;2019_Dec_12_0828;iat_vr;59.48019071307155;
7;BAUM;Natur;p;0;11;11;0;p;1;0.5142161000112537;002;JWLB98x;2019_Dec_12_0828;iat_vr;59.48019071307155;
7;NEGATIV;negativ;q;0;12;12;12;p;0;0.631581699999515;002;JWLB98x;2019_Dec_12_0828;iat_vr;59.48019071307155;
7;SCHLIMM;negativ;q;0;13;13;10;q;1;1.0476878000190482;002;JWLB98x;2019_Dec_12_0828;iat_vr;59.48019071307155;
7;AUSGEZEICHNET;positiv;p;0;14;14;15;p;1;0.5793340999807697;002;JWLB98x;2019_Dec_12_0828;iat_vr;59.48019071307155;
7;STADT;Gemacht;q;0;15;15;6;q;1;1.1125758000125643;002;JWLB98x;2019_Dec_12_0828;iat_vr;59.48019071307155;
7;POSITIV;positiv;p;0;16;16;18;p;1;0.6467365999997128;002;JWLB98x;2019_Dec_12_0828;iat_vr;59.48019071307155;
7;HERVORRAGEND;positiv;p;0;17;17;17;p;1;0.6172996999812312;002;JWLB98x;2019_Dec_12_0828;iat_vr;59.48019071307155;
7;SCHWACH;negativ;q;0;18;18;14;q;1;0.5815194000024348;002;JWLB98x;2019_Dec_12_0828;iat_vr;59.48019071307155;
7;LAMPE;Gemacht;q;0;19;19;9;q;1;0.8979748999990989;002;JWLB98x;2019_Dec_12_0828;iat_vr;59.48019071307155;
7;BAUM;Natur;p;1;0;20;0;p;1;0.6989498999901116;002;JWLB98x;2019_Dec_12_0828;iat_vr;59.48019071307155;
7;SCHWACH;negativ;q;1;1;21;14;q;1;0.8314700000046287;002;JWLB98x;2019_Dec_12_0828;iat_vr;59.48019071307155;
7;GUT;positiv;p;1;2;22;19;p;1;0.6857836999988649;002;JWLB98x;2019_Dec_12_0828;iat_vr;59.48019071307155;
7;HERVORRAGEND;positiv;p;1;3;23;17;p;1;0.8800205000152346;002;JWLB98x;2019_Dec_12_0828;iat_vr;59.48019071307155;
7;GEBÄUDE;Gemacht;q;1;4;24;5;q;1;1.1326071999792475;002;JWLB98x;2019_Dec_12_0828;iat_vr;59.48019071307155;
7;SCHÄDLICH;negativ;q;1;5;25;13;q;1;1.0439477000036277;002;JWLB98x;2019_Dec_12_0828;iat_vr;59.48019071307155;
7;TIER;Natur;p;1;6;26;3;p;1;0.662922499992419;002;JWLB98x;2019_Dec_12_0828;iat_vr;59.48019071307155;
7;EINWANDFREI;positiv;p;1;7;27;16;p;1;1.0126781000290066;002;JWLB98x;2019_Dec_12_0828;iat_vr;59.48019071307155;
7;BLUME;Natur;p;1;8;28;2;p;1;0.551323699997738;002;JWLB98x;2019_Dec_12_0828;iat_vr;59.48019071307155;
7;WASSER;Natur;p;1;9;29;1;p;1;1.0148192000051495;002;JWLB98x;2019_Dec_12_0828;iat_vr;59.48019071307155;
7;NEGATIV;negativ;q;1;10;30;12;q;1;0.5971431999932975;002;JWLB98x;2019_Dec_12_0828;iat_vr;59.48019071307155;
7;POSITIV;positiv;p;1;11;31;18;p;1;0.681692700018175;002;JWLB98x;2019_Dec_12_0828;iat_vr;59.48019071307155;
7;SCHLECHT;negativ;q;1;12;32;11;q;1;0.8686316999956034;002;JWLB98x;2019_Dec_12_0828;iat_vr;59.48019071307155;
7;SCHLIMM;negativ;q;1;13;33;10;q;1;0.6688358999963384;002;JWLB98x;2019_Dec_12_0828;iat_vr;59.48019071307155;
7;LAMPE;Gemacht;q;1;14;34;9;q;1;0.8975926999992225;002;JWLB98x;2019_Dec_12_0828;iat_vr;59.48019071307155;
7;KLEIDER;Gemacht;q;1;15;35;7;q;1;1.0631494999979623;002;JWLB98x;2019_Dec_12_0828;iat_vr;59.48019071307155;
7;STEIN;Natur;p;1;16;36;4;p;1;0.7309913999924902;002;JWLB98x;2019_Dec_12_0828;iat_vr;59.48019071307155;
7;STADT;Gemacht;q;1;17;37;6;q;1;0.6812915000191424;002;JWLB98x;2019_Dec_12_0828;iat_vr;59.48019071307155;
7;COMPUTER;Gemacht;q;1;18;38;8;q;1;1.1971397000015713;002;JWLB98x;2019_Dec_12_0828;iat_vr;59.48019071307155;
7;AUSGEZEICHNET;positiv;p;1;19;39;15;p;1;0.7803169000253547;002;JWLB98x;2019_Dec_12_0828;iat_vr;59.48019071307155;
;;;;;;;;;;;002;JWLB98x;2019_Dec_12_0828;iat_vr;59.48019071307155;
