Block;Word;Category;CorrResp;trials.thisRepN;trials.thisTrialN;trials.thisN;trials.thisIndex;key_resp_2.keys;key_resp_2.corr;key_resp_2.rt;session;participant;date;expName;frameRate;
1;TIER;Natur;q;0;0;0;3;q;1;1.2238408999983221;001;JWLH98x;2019_Dec_12_1454;iat_vr;59.87851846383355;
1;GEBÄUDE;Gemacht;p;0;1;1;5;p;1;0.7332026999793015;001;JWLH98x;2019_Dec_12_1454;iat_vr;59.87851846383355;
1;STEIN;Natur;q;0;2;2;4;q;1;0.7567463000013959;001;JWLH98x;2019_Dec_12_1454;iat_vr;59.87851846383355;
1;KLEIDER;Gemacht;p;0;3;3;7;p;1;0.6598953000211623;001;JWLH98x;2019_Dec_12_1454;iat_vr;59.87851846383355;
1;STADT;Gemacht;p;0;4;4;6;p;1;0.612202399992384;001;JWLH98x;2019_Dec_12_1454;iat_vr;59.87851846383355;
1;WASSER;Natur;q;0;5;5;1;q;1;1.0768353000166826;001;JWLH98x;2019_Dec_12_1454;iat_vr;59.87851846383355;
1;LAMPE;Gemacht;p;0;6;6;9;p;1;0.9621906999964267;001;JWLH98x;2019_Dec_12_1454;iat_vr;59.87851846383355;
1;BLUME;Natur;q;0;7;7;2;q;1;0.6143663999973796;001;JWLH98x;2019_Dec_12_1454;iat_vr;59.87851846383355;
1;COMPUTER;Gemacht;p;0;8;8;8;p;1;0.5718850000121165;001;JWLH98x;2019_Dec_12_1454;iat_vr;59.87851846383355;
1;BAUM;Natur;q;0;9;9;0;q;1;0.6319240000157151;001;JWLH98x;2019_Dec_12_1454;iat_vr;59.87851846383355;
1;BLUME;Natur;q;1;0;10;2;q;1;0.6088853000255767;001;JWLH98x;2019_Dec_12_1454;iat_vr;59.87851846383355;
1;WASSER;Natur;q;1;1;11;1;q;1;0.7478560000017751;001;JWLH98x;2019_Dec_12_1454;iat_vr;59.87851846383355;
1;STEIN;Natur;q;1;2;12;4;p;0;1.014611499995226;001;JWLH98x;2019_Dec_12_1454;iat_vr;59.87851846383355;
1;BAUM;Natur;q;1;3;13;0;q;1;1.0315849000180606;001;JWLH98x;2019_Dec_12_1454;iat_vr;59.87851846383355;
1;GEBÄUDE;Gemacht;p;1;4;14;5;p;1;0.6807779000082519;001;JWLH98x;2019_Dec_12_1454;iat_vr;59.87851846383355;
1;KLEIDER;Gemacht;p;1;5;15;7;p;1;0.9293564000108745;001;JWLH98x;2019_Dec_12_1454;iat_vr;59.87851846383355;
1;TIER;Natur;q;1;6;16;3;q;1;0.8993070999858901;001;JWLH98x;2019_Dec_12_1454;iat_vr;59.87851846383355;
1;STADT;Gemacht;p;1;7;17;6;p;1;0.6490713999955915;001;JWLH98x;2019_Dec_12_1454;iat_vr;59.87851846383355;
1;COMPUTER;Gemacht;p;1;8;18;8;p;1;1.5777302000205964;001;JWLH98x;2019_Dec_12_1454;iat_vr;59.87851846383355;
1;LAMPE;Gemacht;p;1;9;19;9;p;1;0.697743900003843;001;JWLH98x;2019_Dec_12_1454;iat_vr;59.87851846383355;
;;;;;;;;;;;001;JWLH98x;2019_Dec_12_1454;iat_vr;59.87851846383355;
2;HERVORRAGEND;positiv;p;0;0;0;7;p;1;1.1285949999873992;001;JWLH98x;2019_Dec_12_1454;iat_vr;59.87851846383355;
2;GUT;positiv;p;0;1;1;9;p;1;0.6525904000154696;001;JWLH98x;2019_Dec_12_1454;iat_vr;59.87851846383355;
2;NEGATIV;negativ;q;0;2;2;2;q;1;0.6989083999942522;001;JWLH98x;2019_Dec_12_1454;iat_vr;59.87851846383355;
2;SCHWACH;negativ;q;0;3;3;4;q;1;0.697638800018467;001;JWLH98x;2019_Dec_12_1454;iat_vr;59.87851846383355;
2;SCHÄDLICH;negativ;q;0;4;4;3;q;1;0.7106704999750946;001;JWLH98x;2019_Dec_12_1454;iat_vr;59.87851846383355;
2;AUSGEZEICHNET;positiv;p;0;5;5;5;p;1;0.723296299984213;001;JWLH98x;2019_Dec_12_1454;iat_vr;59.87851846383355;
2;SCHLIMM;negativ;q;0;6;6;0;q;1;1.3307871000142768;001;JWLH98x;2019_Dec_12_1454;iat_vr;59.87851846383355;
2;POSITIV;positiv;p;0;7;7;8;p;1;0.8146723000099882;001;JWLH98x;2019_Dec_12_1454;iat_vr;59.87851846383355;
2;SCHLECHT;negativ;q;0;8;8;1;q;1;1.214012400014326;001;JWLH98x;2019_Dec_12_1454;iat_vr;59.87851846383355;
2;EINWANDFREI;positiv;p;0;9;9;6;p;1;0.6417796000023372;001;JWLH98x;2019_Dec_12_1454;iat_vr;59.87851846383355;
2;SCHÄDLICH;negativ;q;1;0;10;3;q;1;0.6130572999827564;001;JWLH98x;2019_Dec_12_1454;iat_vr;59.87851846383355;
2;POSITIV;positiv;p;1;1;11;8;p;1;0.5777764999947976;001;JWLH98x;2019_Dec_12_1454;iat_vr;59.87851846383355;
2;HERVORRAGEND;positiv;p;1;2;12;7;p;1;0.6117064999998547;001;JWLH98x;2019_Dec_12_1454;iat_vr;59.87851846383355;
2;SCHWACH;negativ;q;1;3;13;4;q;1;0.5823922999843489;001;JWLH98x;2019_Dec_12_1454;iat_vr;59.87851846383355;
2;NEGATIV;negativ;q;1;4;14;2;q;1;0.5475211000011768;001;JWLH98x;2019_Dec_12_1454;iat_vr;59.87851846383355;
2;SCHLIMM;negativ;q;1;5;15;0;p;0;0.5642506000003777;001;JWLH98x;2019_Dec_12_1454;iat_vr;59.87851846383355;
2;GUT;positiv;p;1;6;16;9;p;1;0.8327308000007179;001;JWLH98x;2019_Dec_12_1454;iat_vr;59.87851846383355;
2;SCHLECHT;negativ;q;1;7;17;1;q;1;0.6483558999898378;001;JWLH98x;2019_Dec_12_1454;iat_vr;59.87851846383355;
2;AUSGEZEICHNET;positiv;p;1;8;18;5;p;1;0.6778842000057921;001;JWLH98x;2019_Dec_12_1454;iat_vr;59.87851846383355;
2;EINWANDFREI;positiv;p;1;9;19;6;p;1;1.0755177999963053;001;JWLH98x;2019_Dec_12_1454;iat_vr;59.87851846383355;
;;;;;;;;;;;001;JWLH98x;2019_Dec_12_1454;iat_vr;59.87851846383355;
3;LAMPE;Gemacht;p;0;0;0;19;p;1;1.3048079000145663;001;JWLH98x;2019_Dec_12_1454;iat_vr;59.87851846383355;
3;TIER;Natur;q;0;1;1;13;q;1;0.8139994999801274;001;JWLH98x;2019_Dec_12_1454;iat_vr;59.87851846383355;
3;SCHÄDLICH;negativ;q;0;2;2;3;q;1;0.8470389999856707;001;JWLH98x;2019_Dec_12_1454;iat_vr;59.87851846383355;
3;GEBÄUDE;Gemacht;p;0;3;3;15;p;1;0.8140520000015385;001;JWLH98x;2019_Dec_12_1454;iat_vr;59.87851846383355;
3;COMPUTER;Gemacht;p;0;4;4;18;p;1;0.7486325000063516;001;JWLH98x;2019_Dec_12_1454;iat_vr;59.87851846383355;
3;STADT;Gemacht;p;0;5;5;16;p;1;0.7817655999970157;001;JWLH98x;2019_Dec_12_1454;iat_vr;59.87851846383355;
3;STEIN;Natur;q;0;6;6;14;q;1;0.748487999982899;001;JWLH98x;2019_Dec_12_1454;iat_vr;59.87851846383355;
3;SCHLECHT;negativ;q;0;7;7;1;q;1;0.7630172000208404;001;JWLH98x;2019_Dec_12_1454;iat_vr;59.87851846383355;
3;KLEIDER;Gemacht;p;0;8;8;17;p;1;0.7303087999753188;001;JWLH98x;2019_Dec_12_1454;iat_vr;59.87851846383355;
3;EINWANDFREI;positiv;p;0;9;9;6;p;1;1.4459906999836676;001;JWLH98x;2019_Dec_12_1454;iat_vr;59.87851846383355;
3;SCHLIMM;negativ;q;0;10;10;0;q;1;0.696721600019373;001;JWLH98x;2019_Dec_12_1454;iat_vr;59.87851846383355;
3;POSITIV;positiv;p;0;11;11;8;p;1;0.6809965999855194;001;JWLH98x;2019_Dec_12_1454;iat_vr;59.87851846383355;
3;NEGATIV;negativ;q;0;12;12;2;q;1;0.7141524000035133;001;JWLH98x;2019_Dec_12_1454;iat_vr;59.87851846383355;
3;GUT;positiv;p;0;13;13;9;p;1;0.649806700006593;001;JWLH98x;2019_Dec_12_1454;iat_vr;59.87851846383355;
3;BAUM;Natur;q;0;14;14;10;q;1;1.0814394000044558;001;JWLH98x;2019_Dec_12_1454;iat_vr;59.87851846383355;
3;HERVORRAGEND;positiv;p;0;15;15;7;p;1;0.7618452000024263;001;JWLH98x;2019_Dec_12_1454;iat_vr;59.87851846383355;
3;WASSER;Natur;q;0;16;16;11;q;1;1.6638415000052191;001;JWLH98x;2019_Dec_12_1454;iat_vr;59.87851846383355;
3;SCHWACH;negativ;q;0;17;17;4;q;1;1.6071155000245199;001;JWLH98x;2019_Dec_12_1454;iat_vr;59.87851846383355;
3;AUSGEZEICHNET;positiv;p;0;18;18;5;p;1;0.710744700016221;001;JWLH98x;2019_Dec_12_1454;iat_vr;59.87851846383355;
3;BLUME;Natur;q;0;19;19;12;p;0;0.9313632000121288;001;JWLH98x;2019_Dec_12_1454;iat_vr;59.87851846383355;
;;;;;;;;;;;001;JWLH98x;2019_Dec_12_1454;iat_vr;59.87851846383355;
4;BAUM;Natur;q;0;0;0;10;q;1;4.251909899991006;001;JWLH98x;2019_Dec_12_1454;iat_vr;59.87851846383355;
4;BLUME;Natur;q;0;1;1;12;q;1;0.630761500011431;001;JWLH98x;2019_Dec_12_1454;iat_vr;59.87851846383355;
4;STADT;Gemacht;p;0;2;2;16;p;1;0.6801671000139322;001;JWLH98x;2019_Dec_12_1454;iat_vr;59.87851846383355;
4;KLEIDER;Gemacht;p;0;3;3;17;p;1;0.6126974000071641;001;JWLH98x;2019_Dec_12_1454;iat_vr;59.87851846383355;
4;GEBÄUDE;Gemacht;p;0;4;4;15;p;1;0.947181499999715;001;JWLH98x;2019_Dec_12_1454;iat_vr;59.87851846383355;
4;SCHLIMM;negativ;q;0;5;5;0;q;1;1.4313662000058684;001;JWLH98x;2019_Dec_12_1454;iat_vr;59.87851846383355;
4;HERVORRAGEND;positiv;p;0;6;6;7;p;1;0.692705699999351;001;JWLH98x;2019_Dec_12_1454;iat_vr;59.87851846383355;
4;POSITIV;positiv;p;0;7;7;8;p;1;0.6633955000143033;001;JWLH98x;2019_Dec_12_1454;iat_vr;59.87851846383355;
4;SCHWACH;negativ;q;0;8;8;4;q;1;0.6132877000200097;001;JWLH98x;2019_Dec_12_1454;iat_vr;59.87851846383355;
4;SCHLECHT;negativ;q;0;9;9;1;q;1;0.6472681000013836;001;JWLH98x;2019_Dec_12_1454;iat_vr;59.87851846383355;
4;NEGATIV;negativ;q;0;10;10;2;q;1;0.6142542000161484;001;JWLH98x;2019_Dec_12_1454;iat_vr;59.87851846383355;
4;GUT;positiv;p;0;11;11;9;p;1;0.631548000004841;001;JWLH98x;2019_Dec_12_1454;iat_vr;59.87851846383355;
4;COMPUTER;Gemacht;p;0;12;12;18;p;1;0.8643542000208981;001;JWLH98x;2019_Dec_12_1454;iat_vr;59.87851846383355;
4;TIER;Natur;q;0;13;13;13;q;1;0.5979220000153873;001;JWLH98x;2019_Dec_12_1454;iat_vr;59.87851846383355;
4;SCHÄDLICH;negativ;q;0;14;14;3;q;1;0.5650357000122312;001;JWLH98x;2019_Dec_12_1454;iat_vr;59.87851846383355;
4;STEIN;Natur;q;0;15;15;14;q;1;0.9807887999922968;001;JWLH98x;2019_Dec_12_1454;iat_vr;59.87851846383355;
4;WASSER;Natur;q;0;16;16;11;q;1;0.5808461999986321;001;JWLH98x;2019_Dec_12_1454;iat_vr;59.87851846383355;
4;EINWANDFREI;positiv;p;0;17;17;6;p;1;0.7957536999892909;001;JWLH98x;2019_Dec_12_1454;iat_vr;59.87851846383355;
4;LAMPE;Gemacht;p;0;18;18;19;p;1;0.630680999980541;001;JWLH98x;2019_Dec_12_1454;iat_vr;59.87851846383355;
4;AUSGEZEICHNET;positiv;p;0;19;19;5;p;1;0.7621715999848675;001;JWLH98x;2019_Dec_12_1454;iat_vr;59.87851846383355;
4;COMPUTER;Gemacht;p;1;0;20;18;p;1;0.5645644000032917;001;JWLH98x;2019_Dec_12_1454;iat_vr;59.87851846383355;
4;GEBÄUDE;Gemacht;p;1;1;21;15;p;1;0.7455133000039496;001;JWLH98x;2019_Dec_12_1454;iat_vr;59.87851846383355;
4;NEGATIV;negativ;q;1;2;22;2;q;1;0.64477749998332;001;JWLH98x;2019_Dec_12_1454;iat_vr;59.87851846383355;
4;KLEIDER;Gemacht;p;1;3;23;17;p;1;0.7979576000070665;001;JWLH98x;2019_Dec_12_1454;iat_vr;59.87851846383355;
4;HERVORRAGEND;positiv;p;1;4;24;7;p;1;0.7764093999867328;001;JWLH98x;2019_Dec_12_1454;iat_vr;59.87851846383355;
4;AUSGEZEICHNET;positiv;p;1;5;25;5;p;1;0.5283897999906912;001;JWLH98x;2019_Dec_12_1454;iat_vr;59.87851846383355;
4;POSITIV;positiv;p;1;6;26;8;p;1;0.6283400999964215;001;JWLH98x;2019_Dec_12_1454;iat_vr;59.87851846383355;
4;LAMPE;Gemacht;p;1;7;27;19;p;1;0.9312656999973115;001;JWLH98x;2019_Dec_12_1454;iat_vr;59.87851846383355;
4;BLUME;Natur;q;1;8;28;12;q;1;0.5475340000120923;001;JWLH98x;2019_Dec_12_1454;iat_vr;59.87851846383355;
4;WASSER;Natur;q;1;9;29;11;q;1;0.6135953000048175;001;JWLH98x;2019_Dec_12_1454;iat_vr;59.87851846383355;
4;EINWANDFREI;positiv;p;1;10;30;6;p;1;0.9290857000160031;001;JWLH98x;2019_Dec_12_1454;iat_vr;59.87851846383355;
4;GUT;positiv;p;1;11;31;9;p;1;0.8135033000144176;001;JWLH98x;2019_Dec_12_1454;iat_vr;59.87851846383355;
4;SCHÄDLICH;negativ;q;1;12;32;3;q;1;0.6340624000004027;001;JWLH98x;2019_Dec_12_1454;iat_vr;59.87851846383355;
4;TIER;Natur;q;1;13;33;13;q;1;0.9172170000092592;001;JWLH98x;2019_Dec_12_1454;iat_vr;59.87851846383355;
4;BAUM;Natur;q;1;14;34;10;q;1;0.4671834000037052;001;JWLH98x;2019_Dec_12_1454;iat_vr;59.87851846383355;
4;STADT;Gemacht;p;1;15;35;16;p;1;0.5213682999892626;001;JWLH98x;2019_Dec_12_1454;iat_vr;59.87851846383355;
4;SCHLECHT;negativ;q;1;16;36;1;q;1;0.7808546000160277;001;JWLH98x;2019_Dec_12_1454;iat_vr;59.87851846383355;
4;SCHWACH;negativ;q;1;17;37;4;q;1;0.6484843000071123;001;JWLH98x;2019_Dec_12_1454;iat_vr;59.87851846383355;
4;STEIN;Natur;q;1;18;38;14;q;1;0.6821782999904826;001;JWLH98x;2019_Dec_12_1454;iat_vr;59.87851846383355;
4;SCHLIMM;negativ;q;1;19;39;0;q;1;1.0980214000155684;001;JWLH98x;2019_Dec_12_1454;iat_vr;59.87851846383355;
;;;;;;;;;;;001;JWLH98x;2019_Dec_12_1454;iat_vr;59.87851846383355;
5;BAUM;Natur;p;0;0;0;0;p;1;0.6457615999970585;001;JWLH98x;2019_Dec_12_1454;iat_vr;59.87851846383355;
5;STEIN;Natur;p;0;1;1;4;p;1;0.4488577999873087;001;JWLH98x;2019_Dec_12_1454;iat_vr;59.87851846383355;
5;KLEIDER;Gemacht;q;0;2;2;7;q;1;0.7488841000013053;001;JWLH98x;2019_Dec_12_1454;iat_vr;59.87851846383355;
5;STADT;Gemacht;q;0;3;3;6;q;1;1.5320237000123598;001;JWLH98x;2019_Dec_12_1454;iat_vr;59.87851846383355;
5;TIER;Natur;p;0;4;4;3;p;1;0.8645405999850482;001;JWLH98x;2019_Dec_12_1454;iat_vr;59.87851846383355;
5;WASSER;Natur;p;0;5;5;1;p;1;2.4142853999801446;001;JWLH98x;2019_Dec_12_1454;iat_vr;59.87851846383355;
5;LAMPE;Gemacht;q;0;6;6;9;q;1;0.9639768999768421;001;JWLH98x;2019_Dec_12_1454;iat_vr;59.87851846383355;
5;GEBÄUDE;Gemacht;q;0;7;7;5;q;1;0.8642512999940664;001;JWLH98x;2019_Dec_12_1454;iat_vr;59.87851846383355;
5;COMPUTER;Gemacht;q;0;8;8;8;q;1;0.7309362000087276;001;JWLH98x;2019_Dec_12_1454;iat_vr;59.87851846383355;
5;BLUME;Natur;p;0;9;9;2;p;1;0.8317073000071105;001;JWLH98x;2019_Dec_12_1454;iat_vr;59.87851846383355;
5;GEBÄUDE;Gemacht;q;1;0;10;5;q;1;0.6800041000242345;001;JWLH98x;2019_Dec_12_1454;iat_vr;59.87851846383355;
5;STEIN;Natur;p;1;1;11;4;q;0;0.6151769000280183;001;JWLH98x;2019_Dec_12_1454;iat_vr;59.87851846383355;
5;STADT;Gemacht;q;1;2;12;6;q;1;1.1645515999989584;001;JWLH98x;2019_Dec_12_1454;iat_vr;59.87851846383355;
5;BAUM;Natur;p;1;3;13;0;p;1;0.632610200002091;001;JWLH98x;2019_Dec_12_1454;iat_vr;59.87851846383355;
5;KLEIDER;Gemacht;q;1;4;14;7;q;1;0.7317089999851305;001;JWLH98x;2019_Dec_12_1454;iat_vr;59.87851846383355;
5;BLUME;Natur;p;1;5;15;2;p;1;0.6480122999928426;001;JWLH98x;2019_Dec_12_1454;iat_vr;59.87851846383355;
5;TIER;Natur;p;1;6;16;3;p;1;0.6659525999857578;001;JWLH98x;2019_Dec_12_1454;iat_vr;59.87851846383355;
5;LAMPE;Gemacht;q;1;7;17;9;q;1;0.6387978999991901;001;JWLH98x;2019_Dec_12_1454;iat_vr;59.87851846383355;
5;WASSER;Natur;p;1;8;18;1;p;1;0.6142456000088714;001;JWLH98x;2019_Dec_12_1454;iat_vr;59.87851846383355;
5;COMPUTER;Gemacht;q;1;9;19;8;q;1;0.5814033000206109;001;JWLH98x;2019_Dec_12_1454;iat_vr;59.87851846383355;
;;;;;;;;;;;001;JWLH98x;2019_Dec_12_1454;iat_vr;59.87851846383355;
6;SCHÄDLICH;negativ;q;0;0;0;13;q;1;0.8486727999988943;001;JWLH98x;2019_Dec_12_1454;iat_vr;59.87851846383355;
6;SCHWACH;negativ;q;0;1;1;14;q;1;0.5970692999835592;001;JWLH98x;2019_Dec_12_1454;iat_vr;59.87851846383355;
6;SCHLECHT;negativ;q;0;2;2;11;q;1;0.4640901000238955;001;JWLH98x;2019_Dec_12_1454;iat_vr;59.87851846383355;
6;KLEIDER;Gemacht;q;0;3;3;7;q;1;0.5696557000046596;001;JWLH98x;2019_Dec_12_1454;iat_vr;59.87851846383355;
6;STEIN;Natur;p;0;4;4;4;p;1;0.7482585999823641;001;JWLH98x;2019_Dec_12_1454;iat_vr;59.87851846383355;
6;GUT;positiv;p;0;5;5;19;p;1;0.6489308000018355;001;JWLH98x;2019_Dec_12_1454;iat_vr;59.87851846383355;
6;LAMPE;Gemacht;q;0;6;6;9;q;1;0.781460900005186;001;JWLH98x;2019_Dec_12_1454;iat_vr;59.87851846383355;
6;GEBÄUDE;Gemacht;q;0;7;7;5;q;1;0.8909482999879401;001;JWLH98x;2019_Dec_12_1454;iat_vr;59.87851846383355;
6;BLUME;Natur;p;0;8;8;2;p;1;0.5913313999772072;001;JWLH98x;2019_Dec_12_1454;iat_vr;59.87851846383355;
6;AUSGEZEICHNET;positiv;p;0;9;9;15;p;1;0.8279446999949869;001;JWLH98x;2019_Dec_12_1454;iat_vr;59.87851846383355;
6;POSITIV;positiv;p;0;10;10;18;p;1;0.5815766000014264;001;JWLH98x;2019_Dec_12_1454;iat_vr;59.87851846383355;
6;BAUM;Natur;p;0;11;11;0;p;1;0.5978788000065833;001;JWLH98x;2019_Dec_12_1454;iat_vr;59.87851846383355;
6;NEGATIV;negativ;q;0;12;12;12;q;1;0.5645490000024438;001;JWLH98x;2019_Dec_12_1454;iat_vr;59.87851846383355;
6;WASSER;Natur;p;0;13;13;1;p;1;0.6652308999910019;001;JWLH98x;2019_Dec_12_1454;iat_vr;59.87851846383355;
6;SCHLIMM;negativ;q;0;14;14;10;q;1;0.8138792999961879;001;JWLH98x;2019_Dec_12_1454;iat_vr;59.87851846383355;
6;TIER;Natur;p;0;15;15;3;p;1;0.5819650999910664;001;JWLH98x;2019_Dec_12_1454;iat_vr;59.87851846383355;
6;COMPUTER;Gemacht;q;0;16;16;8;q;1;0.6637470999849029;001;JWLH98x;2019_Dec_12_1454;iat_vr;59.87851846383355;
6;HERVORRAGEND;positiv;p;0;17;17;17;p;1;0.5980622000060976;001;JWLH98x;2019_Dec_12_1454;iat_vr;59.87851846383355;
6;STADT;Gemacht;q;0;18;18;6;q;1;0.7157486000214703;001;JWLH98x;2019_Dec_12_1454;iat_vr;59.87851846383355;
6;EINWANDFREI;positiv;p;0;19;19;16;p;1;0.7791233999887481;001;JWLH98x;2019_Dec_12_1454;iat_vr;59.87851846383355;
;;;;;;;;;;;001;JWLH98x;2019_Dec_12_1454;iat_vr;59.87851846383355;
7;TIER;Natur;p;0;0;0;3;p;1;0.9914547000080347;001;JWLH98x;2019_Dec_12_1454;iat_vr;59.87851846383355;
7;COMPUTER;Gemacht;q;0;1;1;8;q;1;0.5927337000030093;001;JWLH98x;2019_Dec_12_1454;iat_vr;59.87851846383355;
7;BAUM;Natur;p;0;2;2;0;p;1;0.6653856999764685;001;JWLH98x;2019_Dec_12_1454;iat_vr;59.87851846383355;
7;GEBÄUDE;Gemacht;q;0;3;3;5;q;1;0.7143724999914411;001;JWLH98x;2019_Dec_12_1454;iat_vr;59.87851846383355;
7;STEIN;Natur;p;0;4;4;4;p;1;0.6313084999856073;001;JWLH98x;2019_Dec_12_1454;iat_vr;59.87851846383355;
7;SCHLECHT;negativ;q;0;5;5;11;q;1;0.6672512000077404;001;JWLH98x;2019_Dec_12_1454;iat_vr;59.87851846383355;
7;EINWANDFREI;positiv;p;0;6;6;16;q;0;0.6461080999870319;001;JWLH98x;2019_Dec_12_1454;iat_vr;59.87851846383355;
7;SCHWACH;negativ;q;0;7;7;14;q;1;0.8654257000016514;001;JWLH98x;2019_Dec_12_1454;iat_vr;59.87851846383355;
7;BLUME;Natur;p;0;8;8;2;p;1;0.7146247000200674;001;JWLH98x;2019_Dec_12_1454;iat_vr;59.87851846383355;
7;WASSER;Natur;p;0;9;9;1;p;1;0.579862000013236;001;JWLH98x;2019_Dec_12_1454;iat_vr;59.87851846383355;
7;STADT;Gemacht;q;0;10;10;6;q;1;0.761002900020685;001;JWLH98x;2019_Dec_12_1454;iat_vr;59.87851846383355;
7;GUT;positiv;p;0;11;11;19;p;1;0.799792100006016;001;JWLH98x;2019_Dec_12_1454;iat_vr;59.87851846383355;
7;KLEIDER;Gemacht;q;0;12;12;7;q;1;0.6814278999809176;001;JWLH98x;2019_Dec_12_1454;iat_vr;59.87851846383355;
7;SCHÄDLICH;negativ;q;0;13;13;13;q;1;0.7810078000184149;001;JWLH98x;2019_Dec_12_1454;iat_vr;59.87851846383355;
7;HERVORRAGEND;positiv;p;0;14;14;17;p;1;0.6120958999963477;001;JWLH98x;2019_Dec_12_1454;iat_vr;59.87851846383355;
7;NEGATIV;negativ;q;0;15;15;12;q;1;0.6767016999947373;001;JWLH98x;2019_Dec_12_1454;iat_vr;59.87851846383355;
7;AUSGEZEICHNET;positiv;p;0;16;16;15;p;1;0.6789540000027046;001;JWLH98x;2019_Dec_12_1454;iat_vr;59.87851846383355;
7;SCHLIMM;negativ;q;0;17;17;10;q;1;0.5967556000105105;001;JWLH98x;2019_Dec_12_1454;iat_vr;59.87851846383355;
7;POSITIV;positiv;p;0;18;18;18;p;1;0.5951032000011764;001;JWLH98x;2019_Dec_12_1454;iat_vr;59.87851846383355;
7;LAMPE;Gemacht;q;0;19;19;9;q;1;0.6152456999989226;001;JWLH98x;2019_Dec_12_1454;iat_vr;59.87851846383355;
7;TIER;Natur;p;1;0;20;3;p;1;0.5663180999981705;001;JWLH98x;2019_Dec_12_1454;iat_vr;59.87851846383355;
7;STEIN;Natur;p;1;1;21;4;p;1;0.5477363999816589;001;JWLH98x;2019_Dec_12_1454;iat_vr;59.87851846383355;
7;STADT;Gemacht;q;1;2;22;6;q;1;0.7804414999845903;001;JWLH98x;2019_Dec_12_1454;iat_vr;59.87851846383355;
7;NEGATIV;negativ;q;1;3;23;12;q;1;0.9311547999968752;001;JWLH98x;2019_Dec_12_1454;iat_vr;59.87851846383355;
7;COMPUTER;Gemacht;q;1;4;24;8;q;1;0.6810087000194471;001;JWLH98x;2019_Dec_12_1454;iat_vr;59.87851846383355;
7;AUSGEZEICHNET;positiv;p;1;5;25;15;p;1;0.5449390000139829;001;JWLH98x;2019_Dec_12_1454;iat_vr;59.87851846383355;
7;LAMPE;Gemacht;q;1;6;26;9;q;1;0.5654772999987472;001;JWLH98x;2019_Dec_12_1454;iat_vr;59.87851846383355;
7;EINWANDFREI;positiv;p;1;7;27;16;p;1;0.9589620000042487;001;JWLH98x;2019_Dec_12_1454;iat_vr;59.87851846383355;
7;SCHWACH;negativ;q;1;8;28;14;q;1;0.6324312000069767;001;JWLH98x;2019_Dec_12_1454;iat_vr;59.87851846383355;
7;GEBÄUDE;Gemacht;q;1;9;29;5;q;1;0.7965109999931883;001;JWLH98x;2019_Dec_12_1454;iat_vr;59.87851846383355;
7;SCHLIMM;negativ;q;1;10;30;10;q;1;0.6945540999877267;001;JWLH98x;2019_Dec_12_1454;iat_vr;59.87851846383355;
7;BAUM;Natur;p;1;11;31;0;p;1;0.5322744000004604;001;JWLH98x;2019_Dec_12_1454;iat_vr;59.87851846383355;
7;WASSER;Natur;p;1;12;32;1;p;1;0.4636195999919437;001;JWLH98x;2019_Dec_12_1454;iat_vr;59.87851846383355;
7;SCHÄDLICH;negativ;q;1;13;33;13;q;1;0.5254807000164874;001;JWLH98x;2019_Dec_12_1454;iat_vr;59.87851846383355;
7;POSITIV;positiv;p;1;14;34;18;p;1;0.5498874000040814;001;JWLH98x;2019_Dec_12_1454;iat_vr;59.87851846383355;
7;BLUME;Natur;p;1;15;35;2;p;1;0.5140186999924481;001;JWLH98x;2019_Dec_12_1454;iat_vr;59.87851846383355;
7;HERVORRAGEND;positiv;p;1;16;36;17;p;1;0.5591198999900371;001;JWLH98x;2019_Dec_12_1454;iat_vr;59.87851846383355;
7;KLEIDER;Gemacht;q;1;17;37;7;q;1;0.5481027000059839;001;JWLH98x;2019_Dec_12_1454;iat_vr;59.87851846383355;
7;GUT;positiv;p;1;18;38;19;p;1;0.5250766999961343;001;JWLH98x;2019_Dec_12_1454;iat_vr;59.87851846383355;
7;SCHLECHT;negativ;q;1;19;39;11;q;1;0.4968974999792408;001;JWLH98x;2019_Dec_12_1454;iat_vr;59.87851846383355;
;;;;;;;;;;;001;JWLH98x;2019_Dec_12_1454;iat_vr;59.87851846383355;
