Block;Word;Category;CorrResp;trials.thisRepN;trials.thisTrialN;trials.thisN;trials.thisIndex;key_resp_2.keys;key_resp_2.corr;key_resp_2.rt;session;participant;date;expName;frameRate;
1;STADT;Gemacht;p;0;0;0;6;p;1;5.481376799987629;001;JWLL97x;2019_Dec_12_0908;iat_vr;59.93547347680267;
1;STEIN;Natur;q;0;1;1;4;q;1;0.8065754999988712;001;JWLL97x;2019_Dec_12_0908;iat_vr;59.93547347680267;
1;TIER;Natur;q;0;2;2;3;q;1;0.6848688999889418;001;JWLL97x;2019_Dec_12_0908;iat_vr;59.93547347680267;
1;KLEIDER;Gemacht;p;0;3;3;7;p;1;0.6759319999837317;001;JWLL97x;2019_Dec_12_0908;iat_vr;59.93547347680267;
1;LAMPE;Gemacht;p;0;4;4;9;p;1;0.6917749000131153;001;JWLL97x;2019_Dec_12_0908;iat_vr;59.93547347680267;
1;GEBÄUDE;Gemacht;p;0;5;5;5;p;1;0.6507914999965578;001;JWLL97x;2019_Dec_12_0908;iat_vr;59.93547347680267;
1;BAUM;Natur;q;0;6;6;0;q;1;0.6856656999734696;001;JWLL97x;2019_Dec_12_0908;iat_vr;59.93547347680267;
1;COMPUTER;Gemacht;p;0;7;7;8;p;1;0.6229251000040676;001;JWLL97x;2019_Dec_12_0908;iat_vr;59.93547347680267;
1;WASSER;Natur;q;0;8;8;1;q;1;0.6620990000083111;001;JWLL97x;2019_Dec_12_0908;iat_vr;59.93547347680267;
1;BLUME;Natur;q;0;9;9;2;q;1;0.6633188000123482;001;JWLL97x;2019_Dec_12_0908;iat_vr;59.93547347680267;
1;STEIN;Natur;q;1;0;10;4;p;0;0.6852817000180949;001;JWLL97x;2019_Dec_12_0908;iat_vr;59.93547347680267;
1;TIER;Natur;q;1;1;11;3;q;1;0.7186558000103105;001;JWLL97x;2019_Dec_12_0908;iat_vr;59.93547347680267;
1;WASSER;Natur;q;1;2;12;1;q;1;0.615539299993543;001;JWLL97x;2019_Dec_12_0908;iat_vr;59.93547347680267;
1;KLEIDER;Gemacht;p;1;3;13;7;q;0;0.6443583999935072;001;JWLL97x;2019_Dec_12_0908;iat_vr;59.93547347680267;
1;LAMPE;Gemacht;p;1;4;14;9;p;1;0.9816078000003472;001;JWLL97x;2019_Dec_12_0908;iat_vr;59.93547347680267;
1;BLUME;Natur;q;1;5;15;2;q;1;0.7150789000152145;001;JWLL97x;2019_Dec_12_0908;iat_vr;59.93547347680267;
1;BAUM;Natur;q;1;6;16;0;q;1;0.7302143999841064;001;JWLL97x;2019_Dec_12_0908;iat_vr;59.93547347680267;
1;GEBÄUDE;Gemacht;p;1;7;17;5;p;1;0.6793131000013091;001;JWLL97x;2019_Dec_12_0908;iat_vr;59.93547347680267;
1;STADT;Gemacht;p;1;8;18;6;p;1;0.6302446000045165;001;JWLL97x;2019_Dec_12_0908;iat_vr;59.93547347680267;
1;COMPUTER;Gemacht;p;1;9;19;8;p;1;0.7294174999988172;001;JWLL97x;2019_Dec_12_0908;iat_vr;59.93547347680267;
;;;;;;;;;;;001;JWLL97x;2019_Dec_12_0908;iat_vr;59.93547347680267;
2;SCHLIMM;negativ;q;0;0;0;0;q;1;2.017467800003942;001;JWLL97x;2019_Dec_12_0908;iat_vr;59.93547347680267;
2;POSITIV;positiv;p;0;1;1;8;p;1;0.7492842999927234;001;JWLL97x;2019_Dec_12_0908;iat_vr;59.93547347680267;
2;SCHLECHT;negativ;q;0;2;2;1;q;1;0.7650374000077136;001;JWLL97x;2019_Dec_12_0908;iat_vr;59.93547347680267;
2;NEGATIV;negativ;q;0;3;3;2;q;1;0.6652036999876145;001;JWLL97x;2019_Dec_12_0908;iat_vr;59.93547347680267;
2;SCHÄDLICH;negativ;q;0;4;4;3;q;1;0.6968243999872357;001;JWLL97x;2019_Dec_12_0908;iat_vr;59.93547347680267;
2;HERVORRAGEND;positiv;p;0;5;5;7;p;1;0.7281424000102561;001;JWLL97x;2019_Dec_12_0908;iat_vr;59.93547347680267;
2;GUT;positiv;p;0;6;6;9;p;1;0.5324218000168912;001;JWLL97x;2019_Dec_12_0908;iat_vr;59.93547347680267;
2;SCHWACH;negativ;q;0;7;7;4;q;1;0.7315672000113409;001;JWLL97x;2019_Dec_12_0908;iat_vr;59.93547347680267;
2;EINWANDFREI;positiv;p;0;8;8;6;p;1;0.8284511000092607;001;JWLL97x;2019_Dec_12_0908;iat_vr;59.93547347680267;
2;AUSGEZEICHNET;positiv;p;0;9;9;5;p;1;0.5568935000046622;001;JWLL97x;2019_Dec_12_0908;iat_vr;59.93547347680267;
2;GUT;positiv;p;1;0;10;9;p;1;0.6029867000179365;001;JWLL97x;2019_Dec_12_0908;iat_vr;59.93547347680267;
2;AUSGEZEICHNET;positiv;p;1;1;11;5;p;1;0.559380599996075;001;JWLL97x;2019_Dec_12_0908;iat_vr;59.93547347680267;
2;SCHÄDLICH;negativ;q;1;2;12;3;q;1;0.6448012000182644;001;JWLL97x;2019_Dec_12_0908;iat_vr;59.93547347680267;
2;SCHLIMM;negativ;q;1;3;13;0;q;1;0.61409280000953;001;JWLL97x;2019_Dec_12_0908;iat_vr;59.93547347680267;
2;HERVORRAGEND;positiv;p;1;4;14;7;p;1;0.6784308000060264;001;JWLL97x;2019_Dec_12_0908;iat_vr;59.93547347680267;
2;POSITIV;positiv;p;1;5;15;8;p;1;0.6135899999935646;001;JWLL97x;2019_Dec_12_0908;iat_vr;59.93547347680267;
2;NEGATIV;negativ;q;1;6;16;2;q;1;0.6133534999971744;001;JWLL97x;2019_Dec_12_0908;iat_vr;59.93547347680267;
2;EINWANDFREI;positiv;p;1;7;17;6;p;1;0.8156010000093374;001;JWLL97x;2019_Dec_12_0908;iat_vr;59.93547347680267;
2;SCHWACH;negativ;q;1;8;18;4;q;1;0.6648976000142284;001;JWLL97x;2019_Dec_12_0908;iat_vr;59.93547347680267;
2;SCHLECHT;negativ;q;1;9;19;1;q;1;0.5452034000190906;001;JWLL97x;2019_Dec_12_0908;iat_vr;59.93547347680267;
;;;;;;;;;;;001;JWLL97x;2019_Dec_12_0908;iat_vr;59.93547347680267;
3;POSITIV;positiv;p;0;0;0;8;p;1;0.7926764999865554;001;JWLL97x;2019_Dec_12_0908;iat_vr;59.93547347680267;
3;LAMPE;Gemacht;p;0;1;1;19;p;1;0.6790405999927316;001;JWLL97x;2019_Dec_12_0908;iat_vr;59.93547347680267;
3;KLEIDER;Gemacht;p;0;2;2;17;q;0;0.6787504999956582;001;JWLL97x;2019_Dec_12_0908;iat_vr;59.93547347680267;
3;HERVORRAGEND;positiv;p;0;3;3;7;p;1;0.7119309999980032;001;JWLL97x;2019_Dec_12_0908;iat_vr;59.93547347680267;
3;SCHLIMM;negativ;q;0;4;4;0;q;1;0.7962871000054292;001;JWLL97x;2019_Dec_12_0908;iat_vr;59.93547347680267;
3;AUSGEZEICHNET;positiv;p;0;5;5;5;p;1;0.7126511999813374;001;JWLL97x;2019_Dec_12_0908;iat_vr;59.93547347680267;
3;STADT;Gemacht;p;0;6;6;16;p;1;0.6984132000070531;001;JWLL97x;2019_Dec_12_0908;iat_vr;59.93547347680267;
3;SCHLECHT;negativ;q;0;7;7;1;q;1;0.7305407999956515;001;JWLL97x;2019_Dec_12_0908;iat_vr;59.93547347680267;
3;NEGATIV;negativ;q;0;8;8;2;q;1;0.6798229000123683;001;JWLL97x;2019_Dec_12_0908;iat_vr;59.93547347680267;
3;WASSER;Natur;q;0;9;9;11;q;1;0.6856529000215232;001;JWLL97x;2019_Dec_12_0908;iat_vr;59.93547347680267;
3;TIER;Natur;q;0;10;10;13;q;1;0.8482628000201657;001;JWLL97x;2019_Dec_12_0908;iat_vr;59.93547347680267;
3;BLUME;Natur;q;0;11;11;12;q;1;2.8149161000037566;001;JWLL97x;2019_Dec_12_0908;iat_vr;59.93547347680267;
3;GUT;positiv;p;0;12;12;9;p;1;0.668729600001825;001;JWLL97x;2019_Dec_12_0908;iat_vr;59.93547347680267;
3;SCHWACH;negativ;q;0;13;13;4;q;1;0.730562100012321;001;JWLL97x;2019_Dec_12_0908;iat_vr;59.93547347680267;
3;GEBÄUDE;Gemacht;p;0;14;14;15;p;1;1.2345462999946903;001;JWLL97x;2019_Dec_12_0908;iat_vr;59.93547347680267;
3;SCHÄDLICH;negativ;q;0;15;15;3;q;1;0.9294739000033587;001;JWLL97x;2019_Dec_12_0908;iat_vr;59.93547347680267;
3;BAUM;Natur;q;0;16;16;10;q;1;0.7816726000164635;001;JWLL97x;2019_Dec_12_0908;iat_vr;59.93547347680267;
3;STEIN;Natur;q;0;17;17;14;q;1;1.1316953000205103;001;JWLL97x;2019_Dec_12_0908;iat_vr;59.93547347680267;
3;EINWANDFREI;positiv;p;0;18;18;6;p;1;0.6633198999916203;001;JWLL97x;2019_Dec_12_0908;iat_vr;59.93547347680267;
3;COMPUTER;Gemacht;p;0;19;19;18;p;1;0.6144101000099909;001;JWLL97x;2019_Dec_12_0908;iat_vr;59.93547347680267;
;;;;;;;;;;;001;JWLL97x;2019_Dec_12_0908;iat_vr;59.93547347680267;
4;HERVORRAGEND;positiv;p;0;0;0;7;p;1;0.8415941999992356;001;JWLL97x;2019_Dec_12_0908;iat_vr;59.93547347680267;
4;AUSGEZEICHNET;positiv;p;0;1;1;5;p;1;0.6620208000240382;001;JWLL97x;2019_Dec_12_0908;iat_vr;59.93547347680267;
4;WASSER;Natur;q;0;2;2;11;q;1;0.9980612999934237;001;JWLL97x;2019_Dec_12_0908;iat_vr;59.93547347680267;
4;SCHLIMM;negativ;q;0;3;3;0;q;1;0.7812679999915417;001;JWLL97x;2019_Dec_12_0908;iat_vr;59.93547347680267;
4;BLUME;Natur;q;0;4;4;12;q;1;1.0638739000132773;001;JWLL97x;2019_Dec_12_0908;iat_vr;59.93547347680267;
4;TIER;Natur;q;0;5;5;13;q;1;0.664791300019715;001;JWLL97x;2019_Dec_12_0908;iat_vr;59.93547347680267;
4;GEBÄUDE;Gemacht;p;0;6;6;15;p;1;0.7458970999869052;001;JWLL97x;2019_Dec_12_0908;iat_vr;59.93547347680267;
4;SCHÄDLICH;negativ;q;0;7;7;3;q;1;1.2294670999981463;001;JWLL97x;2019_Dec_12_0908;iat_vr;59.93547347680267;
4;STEIN;Natur;q;0;8;8;14;q;1;0.6467304000107106;001;JWLL97x;2019_Dec_12_0908;iat_vr;59.93547347680267;
4;SCHLECHT;negativ;q;0;9;9;1;q;1;0.6627048999944236;001;JWLL97x;2019_Dec_12_0908;iat_vr;59.93547347680267;
4;BAUM;Natur;q;0;10;10;10;q;1;0.5980435999808833;001;JWLL97x;2019_Dec_12_0908;iat_vr;59.93547347680267;
4;POSITIV;positiv;p;0;11;11;8;p;1;0.6954265999956988;001;JWLL97x;2019_Dec_12_0908;iat_vr;59.93547347680267;
4;SCHWACH;negativ;q;0;12;12;4;q;1;0.6974860999907833;001;JWLL97x;2019_Dec_12_0908;iat_vr;59.93547347680267;
4;GUT;positiv;p;0;13;13;9;p;1;0.7658034000196494;001;JWLL97x;2019_Dec_12_0908;iat_vr;59.93547347680267;
4;STADT;Gemacht;p;0;14;14;16;p;1;0.626141800021287;001;JWLL97x;2019_Dec_12_0908;iat_vr;59.93547347680267;
4;EINWANDFREI;positiv;p;0;15;15;6;p;1;0.6780073000118136;001;JWLL97x;2019_Dec_12_0908;iat_vr;59.93547347680267;
4;LAMPE;Gemacht;p;0;16;16;19;p;1;0.6165657000092324;001;JWLL97x;2019_Dec_12_0908;iat_vr;59.93547347680267;
4;KLEIDER;Gemacht;p;0;17;17;17;p;1;0.631829000019934;001;JWLL97x;2019_Dec_12_0908;iat_vr;59.93547347680267;
4;NEGATIV;negativ;q;0;18;18;2;q;1;0.6303966999985278;001;JWLL97x;2019_Dec_12_0908;iat_vr;59.93547347680267;
4;COMPUTER;Gemacht;p;0;19;19;18;p;1;0.6809162000135984;001;JWLL97x;2019_Dec_12_0908;iat_vr;59.93547347680267;
4;EINWANDFREI;positiv;p;1;0;20;6;p;1;0.711055200023111;001;JWLL97x;2019_Dec_12_0908;iat_vr;59.93547347680267;
4;SCHWACH;negativ;q;1;1;21;4;q;1;0.6793800999876112;001;JWLL97x;2019_Dec_12_0908;iat_vr;59.93547347680267;
4;POSITIV;positiv;p;1;2;22;8;p;1;0.6354545000067446;001;JWLL97x;2019_Dec_12_0908;iat_vr;59.93547347680267;
4;AUSGEZEICHNET;positiv;p;1;3;23;5;p;1;0.6764626999793109;001;JWLL97x;2019_Dec_12_0908;iat_vr;59.93547347680267;
4;WASSER;Natur;q;1;4;24;11;q;1;0.6810423999850173;001;JWLL97x;2019_Dec_12_0908;iat_vr;59.93547347680267;
4;SCHLIMM;negativ;q;1;5;25;0;q;1;0.7312534999800846;001;JWLL97x;2019_Dec_12_0908;iat_vr;59.93547347680267;
4;BAUM;Natur;q;1;6;26;10;q;1;0.6857187999994494;001;JWLL97x;2019_Dec_12_0908;iat_vr;59.93547347680267;
4;BLUME;Natur;q;1;7;27;12;q;1;0.7804022999771405;001;JWLL97x;2019_Dec_12_0908;iat_vr;59.93547347680267;
4;COMPUTER;Gemacht;p;1;8;28;18;p;1;0.6308090999955311;001;JWLL97x;2019_Dec_12_0908;iat_vr;59.93547347680267;
4;STEIN;Natur;q;1;9;29;14;q;1;0.7139497000025585;001;JWLL97x;2019_Dec_12_0908;iat_vr;59.93547347680267;
4;SCHLECHT;negativ;q;1;10;30;1;q;1;0.6806951999897137;001;JWLL97x;2019_Dec_12_0908;iat_vr;59.93547347680267;
4;NEGATIV;negativ;q;1;11;31;2;q;1;0.6374886000121478;001;JWLL97x;2019_Dec_12_0908;iat_vr;59.93547347680267;
4;HERVORRAGEND;positiv;p;1;12;32;7;p;1;0.6276482999965083;001;JWLL97x;2019_Dec_12_0908;iat_vr;59.93547347680267;
4;GEBÄUDE;Gemacht;p;1;13;33;15;p;1;0.6622847999969963;001;JWLL97x;2019_Dec_12_0908;iat_vr;59.93547347680267;
4;STADT;Gemacht;p;1;14;34;16;p;1;0.6315076999890152;001;JWLL97x;2019_Dec_12_0908;iat_vr;59.93547347680267;
4;GUT;positiv;p;1;15;35;9;p;1;0.5481546000228263;001;JWLL97x;2019_Dec_12_0908;iat_vr;59.93547347680267;
4;KLEIDER;Gemacht;p;1;16;36;17;q;0;0.6635753999871667;001;JWLL97x;2019_Dec_12_0908;iat_vr;59.93547347680267;
4;SCHÄDLICH;negativ;q;1;17;37;3;q;1;0.6952508999966085;001;JWLL97x;2019_Dec_12_0908;iat_vr;59.93547347680267;
4;TIER;Natur;q;1;18;38;13;q;1;2.6325589999905787;001;JWLL97x;2019_Dec_12_0908;iat_vr;59.93547347680267;
4;LAMPE;Gemacht;p;1;19;39;19;p;1;1.1638811999873724;001;JWLL97x;2019_Dec_12_0908;iat_vr;59.93547347680267;
;;;;;;;;;;;001;JWLL97x;2019_Dec_12_0908;iat_vr;59.93547347680267;
5;LAMPE;Gemacht;q;0;0;0;9;p;0;0.946762800012948;001;JWLL97x;2019_Dec_12_0908;iat_vr;59.93547347680267;
5;BAUM;Natur;p;0;1;1;0;q;0;1.7151046000071801;001;JWLL97x;2019_Dec_12_0908;iat_vr;59.93547347680267;
5;STADT;Gemacht;q;0;2;2;6;q;1;9.613650799990864;001;JWLL97x;2019_Dec_12_0908;iat_vr;59.93547347680267;
5;KLEIDER;Gemacht;q;0;3;3;7;q;1;1.596525400003884;001;JWLL97x;2019_Dec_12_0908;iat_vr;59.93547347680267;
5;COMPUTER;Gemacht;q;0;4;4;8;q;1;0.6112775999936275;001;JWLL97x;2019_Dec_12_0908;iat_vr;59.93547347680267;
5;WASSER;Natur;p;0;5;5;1;p;1;0.798165499989409;001;JWLL97x;2019_Dec_12_0908;iat_vr;59.93547347680267;
5;GEBÄUDE;Gemacht;q;0;6;6;5;q;1;0.7306897999951616;001;JWLL97x;2019_Dec_12_0908;iat_vr;59.93547347680267;
5;STEIN;Natur;p;0;7;7;4;p;1;0.7489700999867637;001;JWLL97x;2019_Dec_12_0908;iat_vr;59.93547347680267;
5;TIER;Natur;p;0;8;8;3;p;1;2.9656367000134196;001;JWLL97x;2019_Dec_12_0908;iat_vr;59.93547347680267;
5;BLUME;Natur;p;0;9;9;2;p;1;0.6098850000125822;001;JWLL97x;2019_Dec_12_0908;iat_vr;59.93547347680267;
5;BLUME;Natur;p;1;0;10;2;p;1;0.43399580000550486;001;JWLL97x;2019_Dec_12_0908;iat_vr;59.93547347680267;
5;LAMPE;Gemacht;q;1;1;11;9;p;0;0.5315273999876808;001;JWLL97x;2019_Dec_12_0908;iat_vr;59.93547347680267;
5;STEIN;Natur;p;1;2;12;4;p;1;0.9150049000163563;001;JWLL97x;2019_Dec_12_0908;iat_vr;59.93547347680267;
5;WASSER;Natur;p;1;3;13;1;p;1;0.764454799995292;001;JWLL97x;2019_Dec_12_0908;iat_vr;59.93547347680267;
5;TIER;Natur;p;1;4;14;3;p;1;0.5996981999778654;001;JWLL97x;2019_Dec_12_0908;iat_vr;59.93547347680267;
5;GEBÄUDE;Gemacht;q;1;5;15;5;q;1;1.316947599989362;001;JWLL97x;2019_Dec_12_0908;iat_vr;59.93547347680267;
5;COMPUTER;Gemacht;q;1;6;16;8;q;1;0.8125070999958552;001;JWLL97x;2019_Dec_12_0908;iat_vr;59.93547347680267;
5;KLEIDER;Gemacht;q;1;7;17;7;q;1;0.8477593999996316;001;JWLL97x;2019_Dec_12_0908;iat_vr;59.93547347680267;
5;BAUM;Natur;p;1;8;18;0;p;1;1.0969037000031676;001;JWLL97x;2019_Dec_12_0908;iat_vr;59.93547347680267;
5;STADT;Gemacht;q;1;9;19;6;q;1;0.7306664999923669;001;JWLL97x;2019_Dec_12_0908;iat_vr;59.93547347680267;
;;;;;;;;;;;001;JWLL97x;2019_Dec_12_0908;iat_vr;59.93547347680267;
6;POSITIV;positiv;p;0;0;0;18;p;1;1.6318413999979384;001;JWLL97x;2019_Dec_12_0908;iat_vr;59.93547347680267;
6;GEBÄUDE;Gemacht;q;0;1;1;5;q;1;1.1313365999958478;001;JWLL97x;2019_Dec_12_0908;iat_vr;59.93547347680267;
6;BAUM;Natur;p;0;2;2;0;p;1;0.7825301999982912;001;JWLL97x;2019_Dec_12_0908;iat_vr;59.93547347680267;
6;BLUME;Natur;p;0;3;3;2;p;1;0.6989416000142228;001;JWLL97x;2019_Dec_12_0908;iat_vr;59.93547347680267;
6;TIER;Natur;p;0;4;4;3;p;1;1.1016062000126112;001;JWLL97x;2019_Dec_12_0908;iat_vr;59.93547347680267;
6;WASSER;Natur;p;0;5;5;1;p;1;0.7299499000073411;001;JWLL97x;2019_Dec_12_0908;iat_vr;59.93547347680267;
6;EINWANDFREI;positiv;p;0;6;6;16;p;1;0.7151049000094645;001;JWLL97x;2019_Dec_12_0908;iat_vr;59.93547347680267;
6;GUT;positiv;p;0;7;7;19;p;1;0.5830361999978777;001;JWLL97x;2019_Dec_12_0908;iat_vr;59.93547347680267;
6;HERVORRAGEND;positiv;p;0;8;8;17;p;1;0.5620659999840427;001;JWLL97x;2019_Dec_12_0908;iat_vr;59.93547347680267;
6;KLEIDER;Gemacht;q;0;9;9;7;q;1;1.162918800022453;001;JWLL97x;2019_Dec_12_0908;iat_vr;59.93547347680267;
6;SCHWACH;negativ;q;0;10;10;14;q;1;0.7980337000044528;001;JWLL97x;2019_Dec_12_0908;iat_vr;59.93547347680267;
6;NEGATIV;negativ;q;0;11;11;12;q;1;0.7154808999912348;001;JWLL97x;2019_Dec_12_0908;iat_vr;59.93547347680267;
6;STADT;Gemacht;q;0;12;12;6;q;1;0.8475097000191454;001;JWLL97x;2019_Dec_12_0908;iat_vr;59.93547347680267;
6;SCHLECHT;negativ;q;0;13;13;11;q;1;0.6317572999978438;001;JWLL97x;2019_Dec_12_0908;iat_vr;59.93547347680267;
6;COMPUTER;Gemacht;q;0;14;14;8;q;1;0.6115474000107497;001;JWLL97x;2019_Dec_12_0908;iat_vr;59.93547347680267;
6;LAMPE;Gemacht;q;0;15;15;9;q;1;0.7488616000046022;001;JWLL97x;2019_Dec_12_0908;iat_vr;59.93547347680267;
6;STEIN;Natur;p;0;16;16;4;p;1;0.6814154000021517;001;JWLL97x;2019_Dec_12_0908;iat_vr;59.93547347680267;
6;AUSGEZEICHNET;positiv;p;0;17;17;15;p;1;0.6839199000096414;001;JWLL97x;2019_Dec_12_0908;iat_vr;59.93547347680267;
6;SCHLIMM;negativ;q;0;18;18;10;q;1;0.9127817000262439;001;JWLL97x;2019_Dec_12_0908;iat_vr;59.93547347680267;
6;SCHÄDLICH;negativ;q;0;19;19;13;q;1;0.6507661000068765;001;JWLL97x;2019_Dec_12_0908;iat_vr;59.93547347680267;
;;;;;;;;;;;001;JWLL97x;2019_Dec_12_0908;iat_vr;59.93547347680267;
7;EINWANDFREI;positiv;p;0;0;0;16;p;1;1.1123055999923963;001;JWLL97x;2019_Dec_12_0908;iat_vr;59.93547347680267;
7;AUSGEZEICHNET;positiv;p;0;1;1;15;p;1;0.5519641000137199;001;JWLL97x;2019_Dec_12_0908;iat_vr;59.93547347680267;
7;NEGATIV;negativ;q;0;2;2;12;q;1;0.6812146999873221;001;JWLL97x;2019_Dec_12_0908;iat_vr;59.93547347680267;
7;SCHLIMM;negativ;q;0;3;3;10;q;1;0.6448355999891646;001;JWLL97x;2019_Dec_12_0908;iat_vr;59.93547347680267;
7;STADT;Gemacht;q;0;4;4;6;q;1;0.6805154999892693;001;JWLL97x;2019_Dec_12_0908;iat_vr;59.93547347680267;
7;KLEIDER;Gemacht;q;0;5;5;7;q;1;0.6295582000166178;001;JWLL97x;2019_Dec_12_0908;iat_vr;59.93547347680267;
7;GEBÄUDE;Gemacht;q;0;6;6;5;q;1;0.59659499998088;001;JWLL97x;2019_Dec_12_0908;iat_vr;59.93547347680267;
7;SCHÄDLICH;negativ;q;0;7;7;13;q;1;0.7456794999889098;001;JWLL97x;2019_Dec_12_0908;iat_vr;59.93547347680267;
7;TIER;Natur;p;0;8;8;3;p;1;0.7985423000063747;001;JWLL97x;2019_Dec_12_0908;iat_vr;59.93547347680267;
7;WASSER;Natur;p;0;9;9;1;p;1;0.552642199996626;001;JWLL97x;2019_Dec_12_0908;iat_vr;59.93547347680267;
7;BAUM;Natur;p;0;10;10;0;p;1;0.549128099984955;001;JWLL97x;2019_Dec_12_0908;iat_vr;59.93547347680267;
7;POSITIV;positiv;p;0;11;11;18;p;1;0.5794274000218138;001;JWLL97x;2019_Dec_12_0908;iat_vr;59.93547347680267;
7;HERVORRAGEND;positiv;p;0;12;12;17;p;1;0.5691903999831993;001;JWLL97x;2019_Dec_12_0908;iat_vr;59.93547347680267;
7;GUT;positiv;p;0;13;13;19;p;1;0.5487556000007316;001;JWLL97x;2019_Dec_12_0908;iat_vr;59.93547347680267;
7;STEIN;Natur;p;0;14;14;4;q;0;0.7129074000113178;001;JWLL97x;2019_Dec_12_0908;iat_vr;59.93547347680267;
7;BLUME;Natur;p;0;15;15;2;p;1;0.7138380999967922;001;JWLL97x;2019_Dec_12_0908;iat_vr;59.93547347680267;
7;COMPUTER;Gemacht;q;0;16;16;8;q;1;0.8316636999952607;001;JWLL97x;2019_Dec_12_0908;iat_vr;59.93547347680267;
7;SCHLECHT;negativ;q;0;17;17;11;q;1;0.5475852999952622;001;JWLL97x;2019_Dec_12_0908;iat_vr;59.93547347680267;
7;LAMPE;Gemacht;q;0;18;18;9;q;1;1.0300089999800548;001;JWLL97x;2019_Dec_12_0908;iat_vr;59.93547347680267;
7;SCHWACH;negativ;q;0;19;19;14;q;1;0.6140990999992937;001;JWLL97x;2019_Dec_12_0908;iat_vr;59.93547347680267;
7;BAUM;Natur;p;1;0;20;0;q;0;0.7488006000057794;001;JWLL97x;2019_Dec_12_0908;iat_vr;59.93547347680267;
7;LAMPE;Gemacht;q;1;1;21;9;p;0;0.3145320999901742;001;JWLL97x;2019_Dec_12_0908;iat_vr;59.93547347680267;
7;SCHLECHT;negativ;q;1;2;22;11;q;1;0.8136884000268765;001;JWLL97x;2019_Dec_12_0908;iat_vr;59.93547347680267;
7;AUSGEZEICHNET;positiv;p;1;3;23;15;p;1;1.0952897999959532;001;JWLL97x;2019_Dec_12_0908;iat_vr;59.93547347680267;
7;HERVORRAGEND;positiv;p;1;4;24;17;p;1;0.5953099000034854;001;JWLL97x;2019_Dec_12_0908;iat_vr;59.93547347680267;
7;COMPUTER;Gemacht;q;1;5;25;8;q;1;0.896169399988139;001;JWLL97x;2019_Dec_12_0908;iat_vr;59.93547347680267;
7;SCHWACH;negativ;q;1;6;26;14;q;1;0.7960971999855246;001;JWLL97x;2019_Dec_12_0908;iat_vr;59.93547347680267;
7;NEGATIV;negativ;q;1;7;27;12;q;1;0.62949849999859;001;JWLL97x;2019_Dec_12_0908;iat_vr;59.93547347680267;
7;POSITIV;positiv;p;1;8;28;18;p;1;0.9148982000187971;001;JWLL97x;2019_Dec_12_0908;iat_vr;59.93547347680267;
7;SCHLIMM;negativ;q;1;9;29;10;q;1;0.8468264999974053;001;JWLL97x;2019_Dec_12_0908;iat_vr;59.93547347680267;
7;TIER;Natur;p;1;10;30;3;p;1;1.4990067000035197;001;JWLL97x;2019_Dec_12_0908;iat_vr;59.93547347680267;
7;GUT;positiv;p;1;11;31;19;p;1;0.5993717999954242;001;JWLL97x;2019_Dec_12_0908;iat_vr;59.93547347680267;
7;WASSER;Natur;p;1;12;32;1;p;1;0.746985500009032;001;JWLL97x;2019_Dec_12_0908;iat_vr;59.93547347680267;
7;EINWANDFREI;positiv;p;1;13;33;16;p;1;0.6111367999983486;001;JWLL97x;2019_Dec_12_0908;iat_vr;59.93547347680267;
7;BLUME;Natur;p;1;14;34;2;p;1;1.034508899989305;001;JWLL97x;2019_Dec_12_0908;iat_vr;59.93547347680267;
7;SCHÄDLICH;negativ;q;1;15;35;13;q;1;0.7305428999825381;001;JWLL97x;2019_Dec_12_0908;iat_vr;59.93547347680267;
7;KLEIDER;Gemacht;q;1;16;36;7;q;1;1.1603434999997262;001;JWLL97x;2019_Dec_12_0908;iat_vr;59.93547347680267;
7;STEIN;Natur;p;1;17;37;4;p;1;0.7802888999867719;001;JWLL97x;2019_Dec_12_0908;iat_vr;59.93547347680267;
7;STADT;Gemacht;q;1;18;38;6;q;1;1.2013105999794789;001;JWLL97x;2019_Dec_12_0908;iat_vr;59.93547347680267;
7;GEBÄUDE;Gemacht;q;1;19;39;5;q;1;0.6308514999982435;001;JWLL97x;2019_Dec_12_0908;iat_vr;59.93547347680267;
;;;;;;;;;;;001;JWLL97x;2019_Dec_12_0908;iat_vr;59.93547347680267;
