Block;Word;Category;CorrResp;trials.thisRepN;trials.thisTrialN;trials.thisN;trials.thisIndex;key_resp_2.keys;key_resp_2.corr;key_resp_2.rt;session;participant;date;expName;frameRate;
1;WASSER;Natur;q;0;0;0;1;q;1;5.510439200006658;001;JWLT89;2019_Dec_12_1002;iat_vr;59.25627449239049;
1;LAMPE;Gemacht;p;0;1;1;9;p;1;0.989051999989897;001;JWLT89;2019_Dec_12_1002;iat_vr;59.25627449239049;
1;STADT;Gemacht;p;0;2;2;6;p;1;1.094017099996563;001;JWLT89;2019_Dec_12_1002;iat_vr;59.25627449239049;
1;TIER;Natur;q;0;3;3;3;q;1;2.06337839999469;001;JWLT89;2019_Dec_12_1002;iat_vr;59.25627449239049;
1;KLEIDER;Gemacht;p;0;4;4;7;p;1;2.077960800001165;001;JWLT89;2019_Dec_12_1002;iat_vr;59.25627449239049;
1;BAUM;Natur;q;0;5;5;0;q;1;1.8082683999964502;001;JWLT89;2019_Dec_12_1002;iat_vr;59.25627449239049;
1;COMPUTER;Gemacht;p;0;6;6;8;p;1;0.8713708999857772;001;JWLT89;2019_Dec_12_1002;iat_vr;59.25627449239049;
1;GEBÄUDE;Gemacht;p;0;7;7;5;p;1;1.2895123999915086;001;JWLT89;2019_Dec_12_1002;iat_vr;59.25627449239049;
1;BLUME;Natur;q;0;8;8;2;q;1;0.9150627999915741;001;JWLT89;2019_Dec_12_1002;iat_vr;59.25627449239049;
1;STEIN;Natur;q;0;9;9;4;q;1;1.2438145000196528;001;JWLT89;2019_Dec_12_1002;iat_vr;59.25627449239049;
1;TIER;Natur;q;1;0;10;3;q;1;0.6820177000190597;001;JWLT89;2019_Dec_12_1002;iat_vr;59.25627449239049;
1;LAMPE;Gemacht;p;1;1;11;9;p;1;1.2134628999920096;001;JWLT89;2019_Dec_12_1002;iat_vr;59.25627449239049;
1;STADT;Gemacht;p;1;2;12;6;p;1;1.2452231000061147;001;JWLT89;2019_Dec_12_1002;iat_vr;59.25627449239049;
1;GEBÄUDE;Gemacht;p;1;3;13;5;p;1;0.7970864000089932;001;JWLT89;2019_Dec_12_1002;iat_vr;59.25627449239049;
1;BAUM;Natur;q;1;4;14;0;q;1;2.1831050000037067;001;JWLT89;2019_Dec_12_1002;iat_vr;59.25627449239049;
1;KLEIDER;Gemacht;p;1;5;15;7;p;1;0.913142000004882;001;JWLT89;2019_Dec_12_1002;iat_vr;59.25627449239049;
1;BLUME;Natur;q;1;6;16;2;q;1;2.06256150000263;001;JWLT89;2019_Dec_12_1002;iat_vr;59.25627449239049;
1;STEIN;Natur;q;1;7;17;4;q;1;0.8796184999810066;001;JWLT89;2019_Dec_12_1002;iat_vr;59.25627449239049;
1;COMPUTER;Gemacht;p;1;8;18;8;p;1;1.1146645999979228;001;JWLT89;2019_Dec_12_1002;iat_vr;59.25627449239049;
1;WASSER;Natur;q;1;9;19;1;q;1;0.7962989000079688;001;JWLT89;2019_Dec_12_1002;iat_vr;59.25627449239049;
;;;;;;;;;;;001;JWLT89;2019_Dec_12_1002;iat_vr;59.25627449239049;
2;SCHLECHT;negativ;q;0;0;0;1;p;0;1.8022975999920163;001;JWLT89;2019_Dec_12_1002;iat_vr;59.25627449239049;
2;SCHWACH;negativ;q;0;1;1;4;q;1;12.527839899994433;001;JWLT89;2019_Dec_12_1002;iat_vr;59.25627449239049;
2;POSITIV;positiv;p;0;2;2;8;p;1;1.4734170000010636;001;JWLT89;2019_Dec_12_1002;iat_vr;59.25627449239049;
2;NEGATIV;negativ;q;0;3;3;2;q;1;1.1647202000021935;001;JWLT89;2019_Dec_12_1002;iat_vr;59.25627449239049;
2;GUT;positiv;p;0;4;4;9;p;1;0.980205300002126;001;JWLT89;2019_Dec_12_1002;iat_vr;59.25627449239049;
2;SCHLIMM;negativ;q;0;5;5;0;q;1;0.8808269999863114;001;JWLT89;2019_Dec_12_1002;iat_vr;59.25627449239049;
2;HERVORRAGEND;positiv;p;0;6;6;7;p;1;2.959565700002713;001;JWLT89;2019_Dec_12_1002;iat_vr;59.25627449239049;
2;AUSGEZEICHNET;positiv;p;0;7;7;5;p;1;2.0712848999828566;001;JWLT89;2019_Dec_12_1002;iat_vr;59.25627449239049;
2;EINWANDFREI;positiv;p;0;8;8;6;q;0;4.376996300008614;001;JWLT89;2019_Dec_12_1002;iat_vr;59.25627449239049;
2;SCHÄDLICH;negativ;q;0;9;9;3;q;1;1.0470162999990862;001;JWLT89;2019_Dec_12_1002;iat_vr;59.25627449239049;
2;SCHWACH;negativ;q;1;0;10;4;q;1;3.0275238000031095;001;JWLT89;2019_Dec_12_1002;iat_vr;59.25627449239049;
2;SCHLIMM;negativ;q;1;1;11;0;q;1;0.8317580999864731;001;JWLT89;2019_Dec_12_1002;iat_vr;59.25627449239049;
2;AUSGEZEICHNET;positiv;p;1;2;12;5;p;1;0.8432130000146572;001;JWLT89;2019_Dec_12_1002;iat_vr;59.25627449239049;
2;POSITIV;positiv;p;1;3;13;8;p;1;2.4644434000074398;001;JWLT89;2019_Dec_12_1002;iat_vr;59.25627449239049;
2;EINWANDFREI;positiv;p;1;4;14;6;p;1;0.8122360999986995;001;JWLT89;2019_Dec_12_1002;iat_vr;59.25627449239049;
2;NEGATIV;negativ;q;1;5;15;2;q;1;0.7979997000074945;001;JWLT89;2019_Dec_12_1002;iat_vr;59.25627449239049;
2;SCHÄDLICH;negativ;q;1;6;16;3;q;1;1.7273930999799632;001;JWLT89;2019_Dec_12_1002;iat_vr;59.25627449239049;
2;HERVORRAGEND;positiv;p;1;7;17;7;p;1;0.81142130002263;001;JWLT89;2019_Dec_12_1002;iat_vr;59.25627449239049;
2;GUT;positiv;p;1;8;18;9;p;1;0.7659476999833714;001;JWLT89;2019_Dec_12_1002;iat_vr;59.25627449239049;
2;SCHLECHT;negativ;q;1;9;19;1;q;1;0.7602622000267729;001;JWLT89;2019_Dec_12_1002;iat_vr;59.25627449239049;
;;;;;;;;;;;001;JWLT89;2019_Dec_12_1002;iat_vr;59.25627449239049;
3;NEGATIV;negativ;q;0;0;0;2;q;1;1.4936311999917962;001;JWLT89;2019_Dec_12_1002;iat_vr;59.25627449239049;
3;LAMPE;Gemacht;p;0;1;1;19;p;1;2.9463260999764316;001;JWLT89;2019_Dec_12_1002;iat_vr;59.25627449239049;
3;BAUM;Natur;q;0;2;2;10;q;1;1.914897899987409;001;JWLT89;2019_Dec_12_1002;iat_vr;59.25627449239049;
3;POSITIV;positiv;p;0;3;3;8;p;1;2.3300696999940556;001;JWLT89;2019_Dec_12_1002;iat_vr;59.25627449239049;
3;AUSGEZEICHNET;positiv;p;0;4;4;5;p;1;1.2172100000025239;001;JWLT89;2019_Dec_12_1002;iat_vr;59.25627449239049;
3;GUT;positiv;p;0;5;5;9;p;1;0.9976889000099618;001;JWLT89;2019_Dec_12_1002;iat_vr;59.25627449239049;
3;BLUME;Natur;q;0;6;6;12;q;1;1.731813599995803;001;JWLT89;2019_Dec_12_1002;iat_vr;59.25627449239049;
3;KLEIDER;Gemacht;p;0;7;7;17;p;1;0.9973500999913085;001;JWLT89;2019_Dec_12_1002;iat_vr;59.25627449239049;
3;SCHWACH;negativ;q;0;8;8;4;q;1;2.8944240999990143;001;JWLT89;2019_Dec_12_1002;iat_vr;59.25627449239049;
3;TIER;Natur;q;0;9;9;13;q;1;6.065448299981654;001;JWLT89;2019_Dec_12_1002;iat_vr;59.25627449239049;
3;HERVORRAGEND;positiv;p;0;10;10;7;p;1;1.3100088000064716;001;JWLT89;2019_Dec_12_1002;iat_vr;59.25627449239049;
3;SCHLIMM;negativ;q;0;11;11;0;q;1;1.2476419000013266;001;JWLT89;2019_Dec_12_1002;iat_vr;59.25627449239049;
3;COMPUTER;Gemacht;p;0;12;12;18;p;1;2.3354976999980863;001;JWLT89;2019_Dec_12_1002;iat_vr;59.25627449239049;
3;GEBÄUDE;Gemacht;p;0;13;13;15;p;1;4.580507800012128;001;JWLT89;2019_Dec_12_1002;iat_vr;59.25627449239049;
3;SCHÄDLICH;negativ;q;0;14;14;3;q;1;0.9304229999834206;001;JWLT89;2019_Dec_12_1002;iat_vr;59.25627449239049;
3;SCHLECHT;negativ;q;0;15;15;1;q;1;2.096083099982934;001;JWLT89;2019_Dec_12_1002;iat_vr;59.25627449239049;
3;EINWANDFREI;positiv;p;0;16;16;6;p;1;1.0936916999926325;001;JWLT89;2019_Dec_12_1002;iat_vr;59.25627449239049;
3;STADT;Gemacht;p;0;17;17;16;p;1;3.748623999999836;001;JWLT89;2019_Dec_12_1002;iat_vr;59.25627449239049;
3;WASSER;Natur;q;0;18;18;11;q;1;0.881777400005376;001;JWLT89;2019_Dec_12_1002;iat_vr;59.25627449239049;
3;STEIN;Natur;q;0;19;19;14;q;1;1.4148829999903683;001;JWLT89;2019_Dec_12_1002;iat_vr;59.25627449239049;
;;;;;;;;;;;001;JWLT89;2019_Dec_12_1002;iat_vr;59.25627449239049;
4;BAUM;Natur;q;0;0;0;10;q;1;2.8489331000018865;001;JWLT89;2019_Dec_12_1002;iat_vr;59.25627449239049;
4;LAMPE;Gemacht;p;0;1;1;19;p;1;0.7647523999912664;001;JWLT89;2019_Dec_12_1002;iat_vr;59.25627449239049;
4;POSITIV;positiv;p;0;2;2;8;p;1;1.1492944000056013;001;JWLT89;2019_Dec_12_1002;iat_vr;59.25627449239049;
4;SCHLIMM;negativ;q;0;3;3;0;q;1;1.1652982000086922;001;JWLT89;2019_Dec_12_1002;iat_vr;59.25627449239049;
4;SCHWACH;negativ;q;0;4;4;4;q;1;2.881196900008945;001;JWLT89;2019_Dec_12_1002;iat_vr;59.25627449239049;
4;SCHLECHT;negativ;q;0;5;5;1;q;1;0.7126810000045225;001;JWLT89;2019_Dec_12_1002;iat_vr;59.25627449239049;
4;COMPUTER;Gemacht;p;0;6;6;18;p;1;0.827980000001844;001;JWLT89;2019_Dec_12_1002;iat_vr;59.25627449239049;
4;WASSER;Natur;q;0;7;7;11;q;1;3.231311599985929;001;JWLT89;2019_Dec_12_1002;iat_vr;59.25627449239049;
4;HERVORRAGEND;positiv;p;0;8;8;7;p;1;3.4609953000035603;001;JWLT89;2019_Dec_12_1002;iat_vr;59.25627449239049;
4;GUT;positiv;p;0;9;9;9;p;1;0.8990853000141215;001;JWLT89;2019_Dec_12_1002;iat_vr;59.25627449239049;
4;GEBÄUDE;Gemacht;p;0;10;10;15;q;0;0.8977285000146367;001;JWLT89;2019_Dec_12_1002;iat_vr;59.25627449239049;
4;STADT;Gemacht;p;0;11;11;16;p;1;3.8309510000108276;001;JWLT89;2019_Dec_12_1002;iat_vr;59.25627449239049;
4;BLUME;Natur;q;0;12;12;12;q;1;1.881351199990604;001;JWLT89;2019_Dec_12_1002;iat_vr;59.25627449239049;
4;EINWANDFREI;positiv;p;0;13;13;6;p;1;2.046640299988212;001;JWLT89;2019_Dec_12_1002;iat_vr;59.25627449239049;
4;NEGATIV;negativ;q;0;14;14;2;q;1;0.9800796999770682;001;JWLT89;2019_Dec_12_1002;iat_vr;59.25627449239049;
4;TIER;Natur;q;0;15;15;13;p;0;6.247864200006006;001;JWLT89;2019_Dec_12_1002;iat_vr;59.25627449239049;
4;STEIN;Natur;q;0;16;16;14;q;1;4.714702099998249;001;JWLT89;2019_Dec_12_1002;iat_vr;59.25627449239049;
4;SCHÄDLICH;negativ;q;0;17;17;3;q;1;1.2947838999971282;001;JWLT89;2019_Dec_12_1002;iat_vr;59.25627449239049;
4;AUSGEZEICHNET;positiv;p;0;18;18;5;p;1;2.0600511000084225;001;JWLT89;2019_Dec_12_1002;iat_vr;59.25627449239049;
4;KLEIDER;Gemacht;p;0;19;19;17;p;1;1.197389299981296;001;JWLT89;2019_Dec_12_1002;iat_vr;59.25627449239049;
4;SCHLECHT;negativ;q;1;0;20;1;q;1;4.497975700011011;001;JWLT89;2019_Dec_12_1002;iat_vr;59.25627449239049;
4;SCHÄDLICH;negativ;q;1;1;21;3;q;1;3.2607743999978993;001;JWLT89;2019_Dec_12_1002;iat_vr;59.25627449239049;
4;SCHWACH;negativ;q;1;2;22;4;q;1;0.8814505999907851;001;JWLT89;2019_Dec_12_1002;iat_vr;59.25627449239049;
4;POSITIV;positiv;p;1;3;23;8;p;1;0.8299239999905694;001;JWLT89;2019_Dec_12_1002;iat_vr;59.25627449239049;
4;BLUME;Natur;q;1;4;24;12;p;0;1.748128799983533;001;JWLT89;2019_Dec_12_1002;iat_vr;59.25627449239049;
4;AUSGEZEICHNET;positiv;p;1;5;25;5;p;1;1.9106713999935891;001;JWLT89;2019_Dec_12_1002;iat_vr;59.25627449239049;
4;WASSER;Natur;q;1;6;26;11;q;1;1.0980943999893498;001;JWLT89;2019_Dec_12_1002;iat_vr;59.25627449239049;
4;KLEIDER;Gemacht;p;1;7;27;17;p;1;7.763571499992395;001;JWLT89;2019_Dec_12_1002;iat_vr;59.25627449239049;
4;EINWANDFREI;positiv;p;1;8;28;6;q;0;1.3461144999891985;001;JWLT89;2019_Dec_12_1002;iat_vr;59.25627449239049;
4;SCHLIMM;negativ;q;1;9;29;0;q;1;5.030457199987723;001;JWLT89;2019_Dec_12_1002;iat_vr;59.25627449239049;
4;GUT;positiv;p;1;10;30;9;p;1;0.7624598999973387;001;JWLT89;2019_Dec_12_1002;iat_vr;59.25627449239049;
4;TIER;Natur;q;1;11;31;13;q;1;1.1992848000081722;001;JWLT89;2019_Dec_12_1002;iat_vr;59.25627449239049;
4;STADT;Gemacht;p;1;12;32;16;p;1;1.348274300020421;001;JWLT89;2019_Dec_12_1002;iat_vr;59.25627449239049;
4;LAMPE;Gemacht;p;1;13;33;19;p;1;0.8316769000084605;001;JWLT89;2019_Dec_12_1002;iat_vr;59.25627449239049;
4;BAUM;Natur;q;1;14;34;10;q;1;0.7992106000019703;001;JWLT89;2019_Dec_12_1002;iat_vr;59.25627449239049;
4;GEBÄUDE;Gemacht;p;1;15;35;15;p;1;7.546590299985837;001;JWLT89;2019_Dec_12_1002;iat_vr;59.25627449239049;
4;COMPUTER;Gemacht;p;1;16;36;18;p;1;0.797451499995077;001;JWLT89;2019_Dec_12_1002;iat_vr;59.25627449239049;
4;STEIN;Natur;q;1;17;37;14;q;1;0.8460864000080619;001;JWLT89;2019_Dec_12_1002;iat_vr;59.25627449239049;
4;HERVORRAGEND;positiv;p;1;18;38;7;q;0;1.4113958999805618;001;JWLT89;2019_Dec_12_1002;iat_vr;59.25627449239049;
4;NEGATIV;negativ;q;1;19;39;2;q;1;4.6286632999836;001;JWLT89;2019_Dec_12_1002;iat_vr;59.25627449239049;
;;;;;;;;;;;001;JWLT89;2019_Dec_12_1002;iat_vr;59.25627449239049;
5;WASSER;Natur;p;0;0;0;1;p;1;2.02765959998942;001;JWLT89;2019_Dec_12_1002;iat_vr;59.25627449239049;
5;STEIN;Natur;p;0;1;1;4;p;1;0.7338273999921512;001;JWLT89;2019_Dec_12_1002;iat_vr;59.25627449239049;
5;BLUME;Natur;p;0;2;2;2;p;1;0.752046200010227;001;JWLT89;2019_Dec_12_1002;iat_vr;59.25627449239049;
5;COMPUTER;Gemacht;q;0;3;3;8;q;1;0.6971277999982703;001;JWLT89;2019_Dec_12_1002;iat_vr;59.25627449239049;
5;STADT;Gemacht;q;0;4;4;6;q;1;1.497813900001347;001;JWLT89;2019_Dec_12_1002;iat_vr;59.25627449239049;
5;GEBÄUDE;Gemacht;q;0;5;5;5;q;1;1.19701800000621;001;JWLT89;2019_Dec_12_1002;iat_vr;59.25627449239049;
5;KLEIDER;Gemacht;q;0;6;6;7;q;1;1.2973450999998022;001;JWLT89;2019_Dec_12_1002;iat_vr;59.25627449239049;
5;BAUM;Natur;p;0;7;7;0;p;1;0.765812099998584;001;JWLT89;2019_Dec_12_1002;iat_vr;59.25627449239049;
5;TIER;Natur;p;0;8;8;3;p;1;0.7157975999871269;001;JWLT89;2019_Dec_12_1002;iat_vr;59.25627449239049;
5;LAMPE;Gemacht;q;0;9;9;9;q;1;1.064867300010519;001;JWLT89;2019_Dec_12_1002;iat_vr;59.25627449239049;
5;TIER;Natur;p;1;0;10;3;p;1;0.6499643000133801;001;JWLT89;2019_Dec_12_1002;iat_vr;59.25627449239049;
5;BAUM;Natur;p;1;1;11;0;p;1;2.2988856000010855;001;JWLT89;2019_Dec_12_1002;iat_vr;59.25627449239049;
5;KLEIDER;Gemacht;q;1;2;12;7;q;1;0.830678700003773;001;JWLT89;2019_Dec_12_1002;iat_vr;59.25627449239049;
5;STEIN;Natur;p;1;3;13;4;p;1;2.0306702999805566;001;JWLT89;2019_Dec_12_1002;iat_vr;59.25627449239049;
5;GEBÄUDE;Gemacht;q;1;4;14;5;q;1;1.0141345000010915;001;JWLT89;2019_Dec_12_1002;iat_vr;59.25627449239049;
5;WASSER;Natur;p;1;5;15;1;p;1;0.846232100011548;001;JWLT89;2019_Dec_12_1002;iat_vr;59.25627449239049;
5;STADT;Gemacht;q;1;6;16;6;q;1;0.9813154000148643;001;JWLT89;2019_Dec_12_1002;iat_vr;59.25627449239049;
5;LAMPE;Gemacht;q;1;7;17;9;q;1;1.0145390000252519;001;JWLT89;2019_Dec_12_1002;iat_vr;59.25627449239049;
5;COMPUTER;Gemacht;q;1;8;18;8;q;1;0.7652108000183944;001;JWLT89;2019_Dec_12_1002;iat_vr;59.25627449239049;
5;BLUME;Natur;p;1;9;19;2;p;1;0.7144176000147127;001;JWLT89;2019_Dec_12_1002;iat_vr;59.25627449239049;
;;;;;;;;;;;001;JWLT89;2019_Dec_12_1002;iat_vr;59.25627449239049;
6;BAUM;Natur;p;0;0;0;0;p;1;1.3062024000100791;001;JWLT89;2019_Dec_12_1002;iat_vr;59.25627449239049;
6;BLUME;Natur;p;0;1;1;2;p;1;0.8465882999880705;001;JWLT89;2019_Dec_12_1002;iat_vr;59.25627449239049;
6;SCHWACH;negativ;q;0;2;2;14;q;1;0.8977621000085492;001;JWLT89;2019_Dec_12_1002;iat_vr;59.25627449239049;
6;STADT;Gemacht;q;0;3;3;6;q;1;2.681862800003728;001;JWLT89;2019_Dec_12_1002;iat_vr;59.25627449239049;
6;COMPUTER;Gemacht;q;0;4;4;8;q;1;0.7775440000114031;001;JWLT89;2019_Dec_12_1002;iat_vr;59.25627449239049;
6;KLEIDER;Gemacht;q;0;5;5;7;q;1;2.814090400002897;001;JWLT89;2019_Dec_12_1002;iat_vr;59.25627449239049;
6;SCHLECHT;negativ;q;0;6;6;11;q;1;2.4317804999882355;001;JWLT89;2019_Dec_12_1002;iat_vr;59.25627449239049;
6;EINWANDFREI;positiv;p;0;7;7;16;p;1;1.1632288999971934;001;JWLT89;2019_Dec_12_1002;iat_vr;59.25627449239049;
6;STEIN;Natur;p;0;8;8;4;p;1;2.1481893000018317;001;JWLT89;2019_Dec_12_1002;iat_vr;59.25627449239049;
6;SCHÄDLICH;negativ;q;0;9;9;13;q;1;5.713248799991561;001;JWLT89;2019_Dec_12_1002;iat_vr;59.25627449239049;
6;POSITIV;positiv;p;0;10;10;18;p;1;0.7964732000255026;001;JWLT89;2019_Dec_12_1002;iat_vr;59.25627449239049;
6;WASSER;Natur;p;0;11;11;1;p;1;0.7621205000032205;001;JWLT89;2019_Dec_12_1002;iat_vr;59.25627449239049;
6;HERVORRAGEND;positiv;p;0;12;12;17;p;1;2.426711600011913;001;JWLT89;2019_Dec_12_1002;iat_vr;59.25627449239049;
6;LAMPE;Gemacht;q;0;13;13;9;q;1;0.7691316999844275;001;JWLT89;2019_Dec_12_1002;iat_vr;59.25627449239049;
6;GEBÄUDE;Gemacht;q;0;14;14;5;q;1;2.997214500006521;001;JWLT89;2019_Dec_12_1002;iat_vr;59.25627449239049;
6;AUSGEZEICHNET;positiv;p;0;15;15;15;p;1;1.7460323999985121;001;JWLT89;2019_Dec_12_1002;iat_vr;59.25627449239049;
6;NEGATIV;negativ;q;0;16;16;12;q;1;0.832257700007176;001;JWLT89;2019_Dec_12_1002;iat_vr;59.25627449239049;
6;GUT;positiv;p;0;17;17;19;p;1;0.7477040000085253;001;JWLT89;2019_Dec_12_1002;iat_vr;59.25627449239049;
6;TIER;Natur;p;0;18;18;3;p;1;1.2150521000148728;001;JWLT89;2019_Dec_12_1002;iat_vr;59.25627449239049;
6;SCHLIMM;negativ;q;0;19;19;10;q;1;0.8627363999839872;001;JWLT89;2019_Dec_12_1002;iat_vr;59.25627449239049;
;;;;;;;;;;;001;JWLT89;2019_Dec_12_1002;iat_vr;59.25627449239049;
7;WASSER;Natur;p;0;0;0;1;p;1;2.1273108999885153;001;JWLT89;2019_Dec_12_1002;iat_vr;59.25627449239049;
7;GEBÄUDE;Gemacht;q;0;1;1;5;q;1;0.8982135999831371;001;JWLT89;2019_Dec_12_1002;iat_vr;59.25627449239049;
7;POSITIV;positiv;p;0;2;2;18;p;1;1.2319500999874435;001;JWLT89;2019_Dec_12_1002;iat_vr;59.25627449239049;
7;STEIN;Natur;p;0;3;3;4;q;0;0.882056799979182;001;JWLT89;2019_Dec_12_1002;iat_vr;59.25627449239049;
7;TIER;Natur;p;0;4;4;3;p;1;1.1657730000151787;001;JWLT89;2019_Dec_12_1002;iat_vr;59.25627449239049;
7;STADT;Gemacht;q;0;5;5;6;q;1;0.9212765000120271;001;JWLT89;2019_Dec_12_1002;iat_vr;59.25627449239049;
7;GUT;positiv;p;0;6;6;19;p;1;0.8114958999794908;001;JWLT89;2019_Dec_12_1002;iat_vr;59.25627449239049;
7;AUSGEZEICHNET;positiv;p;0;7;7;15;p;1;0.8617105000012089;001;JWLT89;2019_Dec_12_1002;iat_vr;59.25627449239049;
7;SCHLIMM;negativ;q;0;8;8;10;q;1;0.9648615000187419;001;JWLT89;2019_Dec_12_1002;iat_vr;59.25627449239049;
7;HERVORRAGEND;positiv;p;0;9;9;17;p;1;3.042007400013972;001;JWLT89;2019_Dec_12_1002;iat_vr;59.25627449239049;
7;LAMPE;Gemacht;q;0;10;10;9;q;1;0.7807010000105947;001;JWLT89;2019_Dec_12_1002;iat_vr;59.25627449239049;
7;SCHWACH;negativ;q;0;11;11;14;q;1;0.9640636999974959;001;JWLT89;2019_Dec_12_1002;iat_vr;59.25627449239049;
7;COMPUTER;Gemacht;q;0;12;12;8;q;1;0.7643501000129618;001;JWLT89;2019_Dec_12_1002;iat_vr;59.25627449239049;
7;BLUME;Natur;p;0;13;13;2;p;1;1.3984629999904428;001;JWLT89;2019_Dec_12_1002;iat_vr;59.25627449239049;
7;KLEIDER;Gemacht;q;0;14;14;7;q;1;0.8299963000172284;001;JWLT89;2019_Dec_12_1002;iat_vr;59.25627449239049;
7;NEGATIV;negativ;q;0;15;15;12;q;1;0.7462044999992941;001;JWLT89;2019_Dec_12_1002;iat_vr;59.25627449239049;
7;BAUM;Natur;p;0;16;16;0;p;1;0.6812444999814034;001;JWLT89;2019_Dec_12_1002;iat_vr;59.25627449239049;
7;SCHLECHT;negativ;q;0;17;17;11;q;1;0.746830999996746;001;JWLT89;2019_Dec_12_1002;iat_vr;59.25627449239049;
7;EINWANDFREI;positiv;p;0;18;18;16;p;1;0.8308411000180058;001;JWLT89;2019_Dec_12_1002;iat_vr;59.25627449239049;
7;SCHÄDLICH;negativ;q;0;19;19;13;q;1;1.4286773999920115;001;JWLT89;2019_Dec_12_1002;iat_vr;59.25627449239049;
7;LAMPE;Gemacht;q;1;0;20;9;q;1;0.9149430000106804;001;JWLT89;2019_Dec_12_1002;iat_vr;59.25627449239049;
7;GUT;positiv;p;1;1;21;19;p;1;0.8494117000082042;001;JWLT89;2019_Dec_12_1002;iat_vr;59.25627449239049;
7;SCHWACH;negativ;q;1;2;22;14;q;1;0.8476444999978412;001;JWLT89;2019_Dec_12_1002;iat_vr;59.25627449239049;
7;GEBÄUDE;Gemacht;q;1;3;23;5;q;1;1.2806914999964647;001;JWLT89;2019_Dec_12_1002;iat_vr;59.25627449239049;
7;AUSGEZEICHNET;positiv;p;1;4;24;15;p;1;0.8278096999856643;001;JWLT89;2019_Dec_12_1002;iat_vr;59.25627449239049;
7;NEGATIV;negativ;q;1;5;25;12;q;1;0.7682899000064936;001;JWLT89;2019_Dec_12_1002;iat_vr;59.25627449239049;
7;SCHLIMM;negativ;q;1;6;26;10;q;1;0.8469471000134945;001;JWLT89;2019_Dec_12_1002;iat_vr;59.25627449239049;
7;SCHLECHT;negativ;q;1;7;27;11;q;1;0.6624450999952387;001;JWLT89;2019_Dec_12_1002;iat_vr;59.25627449239049;
7;SCHÄDLICH;negativ;q;1;8;28;13;q;1;0.5969371999963187;001;JWLT89;2019_Dec_12_1002;iat_vr;59.25627449239049;
7;BAUM;Natur;p;1;9;29;0;p;1;0.7146212999941781;001;JWLT89;2019_Dec_12_1002;iat_vr;59.25627449239049;
7;STADT;Gemacht;q;1;10;30;6;q;1;0.6980939999921247;001;JWLT89;2019_Dec_12_1002;iat_vr;59.25627449239049;
7;HERVORRAGEND;positiv;p;1;11;31;17;p;1;0.7289001000171993;001;JWLT89;2019_Dec_12_1002;iat_vr;59.25627449239049;
7;BLUME;Natur;p;1;12;32;2;p;1;2.0140692999993917;001;JWLT89;2019_Dec_12_1002;iat_vr;59.25627449239049;
7;WASSER;Natur;p;1;13;33;1;p;1;0.7985527999990154;001;JWLT89;2019_Dec_12_1002;iat_vr;59.25627449239049;
7;TIER;Natur;p;1;14;34;3;p;1;0.8158429999893997;001;JWLT89;2019_Dec_12_1002;iat_vr;59.25627449239049;
7;STEIN;Natur;p;1;15;35;4;p;1;0.9178475000080653;001;JWLT89;2019_Dec_12_1002;iat_vr;59.25627449239049;
7;KLEIDER;Gemacht;q;1;16;36;7;q;1;0.5940004000149202;001;JWLT89;2019_Dec_12_1002;iat_vr;59.25627449239049;
7;EINWANDFREI;positiv;p;1;17;37;16;p;1;0.6792542000184767;001;JWLT89;2019_Dec_12_1002;iat_vr;59.25627449239049;
7;POSITIV;positiv;p;1;18;38;18;p;1;1.2138809000025503;001;JWLT89;2019_Dec_12_1002;iat_vr;59.25627449239049;
7;COMPUTER;Gemacht;q;1;19;39;8;q;1;1.1958916000148747;001;JWLT89;2019_Dec_12_1002;iat_vr;59.25627449239049;
;;;;;;;;;;;001;JWLT89;2019_Dec_12_1002;iat_vr;59.25627449239049;
