Block;Word;Category;CorrResp;trials.thisRepN;trials.thisTrialN;trials.thisN;trials.thisIndex;key_resp_2.keys;key_resp_2.corr;key_resp_2.rt;session;participant;date;expName;frameRate;
1;GEBÄUDE;Gemacht;p;0;0;0;5;p;1;1.9849918999971123;001;JWML63x;2019_Dec_10_1210;iat_vr;59.947689647234974;
1;STADT;Gemacht;p;0;1;1;6;p;1;1.1693993999942904;001;JWML63x;2019_Dec_10_1210;iat_vr;59.947689647234974;
1;BLUME;Natur;q;0;2;2;2;q;1;1.090505200001644;001;JWML63x;2019_Dec_10_1210;iat_vr;59.947689647234974;
1;WASSER;Natur;q;0;3;3;1;q;1;1.0515338999975938;001;JWML63x;2019_Dec_10_1210;iat_vr;59.947689647234974;
1;STEIN;Natur;q;0;4;4;4;q;1;1.206934400004684;001;JWML63x;2019_Dec_10_1210;iat_vr;59.947689647234974;
1;KLEIDER;Gemacht;p;0;5;5;7;p;1;1.029088800001773;001;JWML63x;2019_Dec_10_1210;iat_vr;59.947689647234974;
1;COMPUTER;Gemacht;p;0;6;6;8;p;1;1.071731500007445;001;JWML63x;2019_Dec_10_1210;iat_vr;59.947689647234974;
1;LAMPE;Gemacht;p;0;7;7;9;p;1;1.0152146999898832;001;JWML63x;2019_Dec_10_1210;iat_vr;59.947689647234974;
1;BAUM;Natur;q;0;8;8;0;q;1;0.866178399999626;001;JWML63x;2019_Dec_10_1210;iat_vr;59.947689647234974;
1;TIER;Natur;q;0;9;9;3;q;1;0.9647712000005413;001;JWML63x;2019_Dec_10_1210;iat_vr;59.947689647234974;
1;TIER;Natur;q;1;0;10;3;q;1;0.8008161999896402;001;JWML63x;2019_Dec_10_1210;iat_vr;59.947689647234974;
1;BLUME;Natur;q;1;1;11;2;q;1;0.9650121000013314;001;JWML63x;2019_Dec_10_1210;iat_vr;59.947689647234974;
1;BAUM;Natur;q;1;2;12;0;q;1;0.832758799995645;001;JWML63x;2019_Dec_10_1210;iat_vr;59.947689647234974;
1;STADT;Gemacht;p;1;3;13;6;p;1;0.8627013999939663;001;JWML63x;2019_Dec_10_1210;iat_vr;59.947689647234974;
1;KLEIDER;Gemacht;p;1;4;14;7;p;1;1.081755899998825;001;JWML63x;2019_Dec_10_1210;iat_vr;59.947689647234974;
1;COMPUTER;Gemacht;p;1;5;15;8;p;1;0.9483335999975679;001;JWML63x;2019_Dec_10_1210;iat_vr;59.947689647234974;
1;STEIN;Natur;q;1;6;16;4;q;1;1.2149703999893973;001;JWML63x;2019_Dec_10_1210;iat_vr;59.947689647234974;
1;LAMPE;Gemacht;p;1;7;17;9;p;1;0.7815042000001995;001;JWML63x;2019_Dec_10_1210;iat_vr;59.947689647234974;
1;WASSER;Natur;q;1;8;18;1;q;1;0.7988422000053106;001;JWML63x;2019_Dec_10_1210;iat_vr;59.947689647234974;
1;GEBÄUDE;Gemacht;p;1;9;19;5;p;1;0.813631599987275;001;JWML63x;2019_Dec_10_1210;iat_vr;59.947689647234974;
;;;;;;;;;;;001;JWML63x;2019_Dec_10_1210;iat_vr;59.947689647234974;
2;POSITIV;positiv;p;0;0;0;8;p;1;1.3847048000025097;001;JWML63x;2019_Dec_10_1210;iat_vr;59.947689647234974;
2;AUSGEZEICHNET;positiv;p;0;1;1;5;p;1;1.2878710999939358;001;JWML63x;2019_Dec_10_1210;iat_vr;59.947689647234974;
2;SCHÄDLICH;negativ;q;0;2;2;3;q;1;0.8632205000030808;001;JWML63x;2019_Dec_10_1210;iat_vr;59.947689647234974;
2;SCHLECHT;negativ;q;0;3;3;1;q;1;0.7474751999980072;001;JWML63x;2019_Dec_10_1210;iat_vr;59.947689647234974;
2;SCHLIMM;negativ;q;0;4;4;0;q;1;0.6635330999997677;001;JWML63x;2019_Dec_10_1210;iat_vr;59.947689647234974;
2;NEGATIV;negativ;q;0;5;5;2;q;1;0.9627914000011515;001;JWML63x;2019_Dec_10_1210;iat_vr;59.947689647234974;
2;GUT;positiv;p;0;6;6;9;p;1;0.7155581999977585;001;JWML63x;2019_Dec_10_1210;iat_vr;59.947689647234974;
2;HERVORRAGEND;positiv;p;0;7;7;7;p;1;0.822463799995603;001;JWML63x;2019_Dec_10_1210;iat_vr;59.947689647234974;
2;EINWANDFREI;positiv;p;0;8;8;6;p;1;0.7437154000072042;001;JWML63x;2019_Dec_10_1210;iat_vr;59.947689647234974;
2;SCHWACH;negativ;q;0;9;9;4;q;1;0.7478613999992376;001;JWML63x;2019_Dec_10_1210;iat_vr;59.947689647234974;
2;EINWANDFREI;positiv;p;1;0;10;6;p;1;0.7451412999944296;001;JWML63x;2019_Dec_10_1210;iat_vr;59.947689647234974;
2;SCHLIMM;negativ;q;1;1;11;0;q;1;4.229131599990069;001;JWML63x;2019_Dec_10_1210;iat_vr;59.947689647234974;
2;HERVORRAGEND;positiv;p;1;2;12;7;p;1;0.9107354000007035;001;JWML63x;2019_Dec_10_1210;iat_vr;59.947689647234974;
2;NEGATIV;negativ;q;1;3;13;2;q;1;0.7488291999907233;001;JWML63x;2019_Dec_10_1210;iat_vr;59.947689647234974;
2;AUSGEZEICHNET;positiv;p;1;4;14;5;p;1;0.87734370000544;001;JWML63x;2019_Dec_10_1210;iat_vr;59.947689647234974;
2;SCHLECHT;negativ;q;1;5;15;1;q;1;0.7278144000010798;001;JWML63x;2019_Dec_10_1210;iat_vr;59.947689647234974;
2;POSITIV;positiv;p;1;6;16;8;p;1;0.6474877000000561;001;JWML63x;2019_Dec_10_1210;iat_vr;59.947689647234974;
2;GUT;positiv;p;1;7;17;9;p;1;0.6162462999927811;001;JWML63x;2019_Dec_10_1210;iat_vr;59.947689647234974;
2;SCHÄDLICH;negativ;q;1;8;18;3;q;1;0.580526200006716;001;JWML63x;2019_Dec_10_1210;iat_vr;59.947689647234974;
2;SCHWACH;negativ;q;1;9;19;4;q;1;1.280888599998434;001;JWML63x;2019_Dec_10_1210;iat_vr;59.947689647234974;
;;;;;;;;;;;001;JWML63x;2019_Dec_10_1210;iat_vr;59.947689647234974;
3;TIER;Natur;q;0;0;0;13;q;1;2.4374020999966888;001;JWML63x;2019_Dec_10_1210;iat_vr;59.947689647234974;
3;STEIN;Natur;q;0;1;1;14;q;1;2.6147214000084205;001;JWML63x;2019_Dec_10_1210;iat_vr;59.947689647234974;
3;SCHLECHT;negativ;q;0;2;2;1;q;1;2.9479157000023406;001;JWML63x;2019_Dec_10_1210;iat_vr;59.947689647234974;
3;STADT;Gemacht;p;0;3;3;16;p;1;2.2850460999907227;001;JWML63x;2019_Dec_10_1210;iat_vr;59.947689647234974;
3;EINWANDFREI;positiv;p;0;4;4;6;p;1;2.2295712000050116;001;JWML63x;2019_Dec_10_1210;iat_vr;59.947689647234974;
3;SCHLIMM;negativ;q;0;5;5;0;q;1;1.051405900012469;001;JWML63x;2019_Dec_10_1210;iat_vr;59.947689647234974;
3;SCHWACH;negativ;q;0;6;6;4;q;1;2.2137268999940716;001;JWML63x;2019_Dec_10_1210;iat_vr;59.947689647234974;
3;HERVORRAGEND;positiv;p;0;7;7;7;p;1;1.8955828000034671;001;JWML63x;2019_Dec_10_1210;iat_vr;59.947689647234974;
3;COMPUTER;Gemacht;p;0;8;8;18;p;1;1.2970444000093266;001;JWML63x;2019_Dec_10_1210;iat_vr;59.947689647234974;
3;POSITIV;positiv;p;0;9;9;8;p;1;1.0146295000013197;001;JWML63x;2019_Dec_10_1210;iat_vr;59.947689647234974;
3;WASSER;Natur;q;0;10;10;11;q;1;1.0983302999957232;001;JWML63x;2019_Dec_10_1210;iat_vr;59.947689647234974;
3;BAUM;Natur;q;0;11;11;10;q;1;0.7491100000042934;001;JWML63x;2019_Dec_10_1210;iat_vr;59.947689647234974;
3;LAMPE;Gemacht;p;0;12;12;19;p;1;1.265357899988885;001;JWML63x;2019_Dec_10_1210;iat_vr;59.947689647234974;
3;GUT;positiv;p;0;13;13;9;p;1;1.5104911999951582;001;JWML63x;2019_Dec_10_1210;iat_vr;59.947689647234974;
3;KLEIDER;Gemacht;p;0;14;14;17;p;1;1.8149373000051128;001;JWML63x;2019_Dec_10_1210;iat_vr;59.947689647234974;
3;SCHÄDLICH;negativ;q;0;15;15;3;q;1;1.0104037999990396;001;JWML63x;2019_Dec_10_1210;iat_vr;59.947689647234974;
3;NEGATIV;negativ;q;0;16;16;2;q;1;0.8967088000063086;001;JWML63x;2019_Dec_10_1210;iat_vr;59.947689647234974;
3;BLUME;Natur;q;0;17;17;12;q;1;1.6952947999961907;001;JWML63x;2019_Dec_10_1210;iat_vr;59.947689647234974;
3;AUSGEZEICHNET;positiv;p;0;18;18;5;p;1;1.4101400000072317;001;JWML63x;2019_Dec_10_1210;iat_vr;59.947689647234974;
3;GEBÄUDE;Gemacht;p;0;19;19;15;p;1;0.9481683000049088;001;JWML63x;2019_Dec_10_1210;iat_vr;59.947689647234974;
;;;;;;;;;;;001;JWML63x;2019_Dec_10_1210;iat_vr;59.947689647234974;
4;BLUME;Natur;q;0;0;0;12;q;1;2.309771299987915;001;JWML63x;2019_Dec_10_1210;iat_vr;59.947689647234974;
4;BAUM;Natur;q;0;1;1;10;q;1;0.8652821999858133;001;JWML63x;2019_Dec_10_1210;iat_vr;59.947689647234974;
4;SCHLIMM;negativ;q;0;2;2;0;q;1;1.0858318999962648;001;JWML63x;2019_Dec_10_1210;iat_vr;59.947689647234974;
4;EINWANDFREI;positiv;p;0;3;3;6;p;1;0.9792565999960061;001;JWML63x;2019_Dec_10_1210;iat_vr;59.947689647234974;
4;SCHLECHT;negativ;q;0;4;4;1;q;1;1.1621569999988424;001;JWML63x;2019_Dec_10_1210;iat_vr;59.947689647234974;
4;NEGATIV;negativ;q;0;5;5;2;q;1;0.9815418999933172;001;JWML63x;2019_Dec_10_1210;iat_vr;59.947689647234974;
4;STEIN;Natur;q;0;6;6;14;q;1;1.5484674000035739;001;JWML63x;2019_Dec_10_1210;iat_vr;59.947689647234974;
4;STADT;Gemacht;p;0;7;7;16;p;1;0.9356807000003755;001;JWML63x;2019_Dec_10_1210;iat_vr;59.947689647234974;
4;GUT;positiv;p;0;8;8;9;p;1;0.9153165000025183;001;JWML63x;2019_Dec_10_1210;iat_vr;59.947689647234974;
4;GEBÄUDE;Gemacht;p;0;9;9;15;p;1;1.0524467000068398;001;JWML63x;2019_Dec_10_1210;iat_vr;59.947689647234974;
4;LAMPE;Gemacht;p;0;10;10;19;p;1;0.8982398999942234;001;JWML63x;2019_Dec_10_1210;iat_vr;59.947689647234974;
4;HERVORRAGEND;positiv;p;0;11;11;7;p;1;0.9287230999907479;001;JWML63x;2019_Dec_10_1210;iat_vr;59.947689647234974;
4;AUSGEZEICHNET;positiv;p;0;12;12;5;p;1;0.7779394999961369;001;JWML63x;2019_Dec_10_1210;iat_vr;59.947689647234974;
4;COMPUTER;Gemacht;p;0;13;13;18;p;1;0.8316718999994919;001;JWML63x;2019_Dec_10_1210;iat_vr;59.947689647234974;
4;KLEIDER;Gemacht;p;0;14;14;17;p;1;1.0641858000017237;001;JWML63x;2019_Dec_10_1210;iat_vr;59.947689647234974;
4;SCHÄDLICH;negativ;q;0;15;15;3;q;1;1.7688637999963248;001;JWML63x;2019_Dec_10_1210;iat_vr;59.947689647234974;
4;TIER;Natur;q;0;16;16;13;q;1;0.6153424000076484;001;JWML63x;2019_Dec_10_1210;iat_vr;59.947689647234974;
4;SCHWACH;negativ;q;0;17;17;4;q;1;0.8636823999986518;001;JWML63x;2019_Dec_10_1210;iat_vr;59.947689647234974;
4;POSITIV;positiv;p;0;18;18;8;p;1;0.8149279000062961;001;JWML63x;2019_Dec_10_1210;iat_vr;59.947689647234974;
4;WASSER;Natur;q;0;19;19;11;q;1;1.147866699990118;001;JWML63x;2019_Dec_10_1210;iat_vr;59.947689647234974;
4;POSITIV;positiv;p;1;0;20;8;p;1;1.797868900001049;001;JWML63x;2019_Dec_10_1210;iat_vr;59.947689647234974;
4;STEIN;Natur;q;1;1;21;14;q;1;0.9152985999971861;001;JWML63x;2019_Dec_10_1210;iat_vr;59.947689647234974;
4;HERVORRAGEND;positiv;p;1;2;22;7;p;1;1.0630823000101373;001;JWML63x;2019_Dec_10_1210;iat_vr;59.947689647234974;
4;EINWANDFREI;positiv;p;1;3;23;6;p;1;0.8625349999929313;001;JWML63x;2019_Dec_10_1210;iat_vr;59.947689647234974;
4;COMPUTER;Gemacht;p;1;4;24;18;p;1;1.1138382999924943;001;JWML63x;2019_Dec_10_1210;iat_vr;59.947689647234974;
4;AUSGEZEICHNET;positiv;p;1;5;25;5;p;1;0.8953856999869458;001;JWML63x;2019_Dec_10_1210;iat_vr;59.947689647234974;
4;STADT;Gemacht;p;1;6;26;16;p;1;1.0152363000088371;001;JWML63x;2019_Dec_10_1210;iat_vr;59.947689647234974;
4;SCHÄDLICH;negativ;q;1;7;27;3;q;1;0.8643498000019463;001;JWML63x;2019_Dec_10_1210;iat_vr;59.947689647234974;
4;SCHLIMM;negativ;q;1;8;28;0;q;1;1.0475810999923851;001;JWML63x;2019_Dec_10_1210;iat_vr;59.947689647234974;
4;TIER;Natur;q;1;9;29;13;q;1;0.9320806000032462;001;JWML63x;2019_Dec_10_1210;iat_vr;59.947689647234974;
4;SCHWACH;negativ;q;1;10;30;4;q;1;0.9088244000013219;001;JWML63x;2019_Dec_10_1210;iat_vr;59.947689647234974;
4;BLUME;Natur;q;1;11;31;12;q;1;1.1815569000027608;001;JWML63x;2019_Dec_10_1210;iat_vr;59.947689647234974;
4;GUT;positiv;p;1;12;32;9;p;1;0.8326940999977523;001;JWML63x;2019_Dec_10_1210;iat_vr;59.947689647234974;
4;GEBÄUDE;Gemacht;p;1;13;33;15;p;1;0.7967132000048878;001;JWML63x;2019_Dec_10_1210;iat_vr;59.947689647234974;
4;BAUM;Natur;q;1;14;34;10;q;1;0.7156010000035167;001;JWML63x;2019_Dec_10_1210;iat_vr;59.947689647234974;
4;WASSER;Natur;q;1;15;35;11;q;1;0.9802319000009447;001;JWML63x;2019_Dec_10_1210;iat_vr;59.947689647234974;
4;KLEIDER;Gemacht;p;1;16;36;17;p;1;2.063821799994912;001;JWML63x;2019_Dec_10_1210;iat_vr;59.947689647234974;
4;SCHLECHT;negativ;q;1;17;37;1;q;1;0.9635969999944791;001;JWML63x;2019_Dec_10_1210;iat_vr;59.947689647234974;
4;NEGATIV;negativ;q;1;18;38;2;q;1;0.7814297000004444;001;JWML63x;2019_Dec_10_1210;iat_vr;59.947689647234974;
4;LAMPE;Gemacht;p;1;19;39;19;p;1;0.7817942999972729;001;JWML63x;2019_Dec_10_1210;iat_vr;59.947689647234974;
;;;;;;;;;;;001;JWML63x;2019_Dec_10_1210;iat_vr;59.947689647234974;
5;GEBÄUDE;Gemacht;q;0;0;0;5;q;1;1.8509072000015294;001;JWML63x;2019_Dec_10_1210;iat_vr;59.947689647234974;
5;BLUME;Natur;p;0;1;1;2;p;1;0.865693800005829;001;JWML63x;2019_Dec_10_1210;iat_vr;59.947689647234974;
5;STEIN;Natur;p;0;2;2;4;p;1;1.9143570000014734;001;JWML63x;2019_Dec_10_1210;iat_vr;59.947689647234974;
5;KLEIDER;Gemacht;q;0;3;3;7;q;1;0.9314250000024913;001;JWML63x;2019_Dec_10_1210;iat_vr;59.947689647234974;
5;LAMPE;Gemacht;q;0;4;4;9;q;1;0.9153173999948194;001;JWML63x;2019_Dec_10_1210;iat_vr;59.947689647234974;
5;STADT;Gemacht;q;0;5;5;6;q;1;0.8812739999993937;001;JWML63x;2019_Dec_10_1210;iat_vr;59.947689647234974;
5;WASSER;Natur;p;0;6;6;1;p;1;0.764127999995253;001;JWML63x;2019_Dec_10_1210;iat_vr;59.947689647234974;
5;BAUM;Natur;p;0;7;7;0;p;1;0.9165765000070678;001;JWML63x;2019_Dec_10_1210;iat_vr;59.947689647234974;
5;COMPUTER;Gemacht;q;0;8;8;8;q;1;0.7980214999988675;001;JWML63x;2019_Dec_10_1210;iat_vr;59.947689647234974;
5;TIER;Natur;p;0;9;9;3;p;1;0.7489618999970844;001;JWML63x;2019_Dec_10_1210;iat_vr;59.947689647234974;
5;BLUME;Natur;p;1;0;10;2;p;1;0.6480668000003789;001;JWML63x;2019_Dec_10_1210;iat_vr;59.947689647234974;
5;KLEIDER;Gemacht;q;1;1;11;7;q;1;0.9655766999931075;001;JWML63x;2019_Dec_10_1210;iat_vr;59.947689647234974;
5;STEIN;Natur;p;1;2;12;4;p;1;0.7788338999962434;001;JWML63x;2019_Dec_10_1210;iat_vr;59.947689647234974;
5;GEBÄUDE;Gemacht;q;1;3;13;5;q;1;1.3839308000024175;001;JWML63x;2019_Dec_10_1210;iat_vr;59.947689647234974;
5;COMPUTER;Gemacht;q;1;4;14;8;q;1;0.7964166000019759;001;JWML63x;2019_Dec_10_1210;iat_vr;59.947689647234974;
5;BAUM;Natur;p;1;5;15;0;p;1;0.7488161000073887;001;JWML63x;2019_Dec_10_1210;iat_vr;59.947689647234974;
5;STADT;Gemacht;q;1;6;16;6;q;1;0.9185246999986703;001;JWML63x;2019_Dec_10_1210;iat_vr;59.947689647234974;
5;WASSER;Natur;p;1;7;17;1;p;1;0.8522837999917101;001;JWML63x;2019_Dec_10_1210;iat_vr;59.947689647234974;
5;TIER;Natur;p;1;8;18;3;p;1;0.9187835000047926;001;JWML63x;2019_Dec_10_1210;iat_vr;59.947689647234974;
5;LAMPE;Gemacht;q;1;9;19;9;q;1;0.8181414999999106;001;JWML63x;2019_Dec_10_1210;iat_vr;59.947689647234974;
;;;;;;;;;;;001;JWML63x;2019_Dec_10_1210;iat_vr;59.947689647234974;
6;SCHLECHT;negativ;q;0;0;0;11;q;1;1.395468200003961;001;JWML63x;2019_Dec_10_1210;iat_vr;59.947689647234974;
6;STADT;Gemacht;q;0;1;1;6;q;1;1.2995498000091175;001;JWML63x;2019_Dec_10_1210;iat_vr;59.947689647234974;
6;BAUM;Natur;p;0;2;2;0;p;1;0.9477535999903921;001;JWML63x;2019_Dec_10_1210;iat_vr;59.947689647234974;
6;LAMPE;Gemacht;q;0;3;3;9;q;1;0.7985912000003736;001;JWML63x;2019_Dec_10_1210;iat_vr;59.947689647234974;
6;GUT;positiv;p;0;4;4;19;p;1;1.4179914999986067;001;JWML63x;2019_Dec_10_1210;iat_vr;59.947689647234974;
6;KLEIDER;Gemacht;q;0;5;5;7;q;1;0.7314456000021892;001;JWML63x;2019_Dec_10_1210;iat_vr;59.947689647234974;
6;EINWANDFREI;positiv;p;0;6;6;16;p;1;1.0974573999992572;001;JWML63x;2019_Dec_10_1210;iat_vr;59.947689647234974;
6;GEBÄUDE;Gemacht;q;0;7;7;5;q;1;0.7315384999965318;001;JWML63x;2019_Dec_10_1210;iat_vr;59.947689647234974;
6;COMPUTER;Gemacht;q;0;8;8;8;q;1;0.9308056000008946;001;JWML63x;2019_Dec_10_1210;iat_vr;59.947689647234974;
6;TIER;Natur;p;0;9;9;3;p;1;1.082965299996431;001;JWML63x;2019_Dec_10_1210;iat_vr;59.947689647234974;
6;STEIN;Natur;p;0;10;10;4;p;1;0.8319839000032516;001;JWML63x;2019_Dec_10_1210;iat_vr;59.947689647234974;
6;SCHÄDLICH;negativ;q;0;11;11;13;q;1;0.6631717999989633;001;JWML63x;2019_Dec_10_1210;iat_vr;59.947689647234974;
6;AUSGEZEICHNET;positiv;p;0;12;12;15;p;1;0.6617134999978589;001;JWML63x;2019_Dec_10_1210;iat_vr;59.947689647234974;
6;SCHLIMM;negativ;q;0;13;13;10;q;1;0.7448498000012478;001;JWML63x;2019_Dec_10_1210;iat_vr;59.947689647234974;
6;POSITIV;positiv;p;0;14;14;18;p;1;0.6140242999972543;001;JWML63x;2019_Dec_10_1210;iat_vr;59.947689647234974;
6;BLUME;Natur;p;0;15;15;2;p;1;0.6478397000028053;001;JWML63x;2019_Dec_10_1210;iat_vr;59.947689647234974;
6;WASSER;Natur;p;0;16;16;1;p;1;0.6845541000075173;001;JWML63x;2019_Dec_10_1210;iat_vr;59.947689647234974;
6;NEGATIV;negativ;q;0;17;17;12;q;1;0.7320965999970213;001;JWML63x;2019_Dec_10_1210;iat_vr;59.947689647234974;
6;HERVORRAGEND;positiv;p;0;18;18;17;p;1;0.6761905000021216;001;JWML63x;2019_Dec_10_1210;iat_vr;59.947689647234974;
6;SCHWACH;negativ;q;0;19;19;14;q;1;0.6167340999963926;001;JWML63x;2019_Dec_10_1210;iat_vr;59.947689647234974;
;;;;;;;;;;;001;JWML63x;2019_Dec_10_1210;iat_vr;59.947689647234974;
7;LAMPE;Gemacht;q;0;0;0;9;q;1;1.4311874999984866;001;JWML63x;2019_Dec_10_1210;iat_vr;59.947689647234974;
7;GEBÄUDE;Gemacht;q;0;1;1;5;q;1;2.0964208000077633;001;JWML63x;2019_Dec_10_1210;iat_vr;59.947689647234974;
7;STEIN;Natur;p;0;2;2;4;p;1;0.8503865999955451;001;JWML63x;2019_Dec_10_1210;iat_vr;59.947689647234974;
7;POSITIV;positiv;p;0;3;3;18;p;1;0.6138307999935932;001;JWML63x;2019_Dec_10_1210;iat_vr;59.947689647234974;
7;COMPUTER;Gemacht;q;0;4;4;8;q;1;0.663329100003466;001;JWML63x;2019_Dec_10_1210;iat_vr;59.947689647234974;
7;SCHLECHT;negativ;q;0;5;5;11;q;1;1.180507500001113;001;JWML63x;2019_Dec_10_1210;iat_vr;59.947689647234974;
7;EINWANDFREI;positiv;p;0;6;6;16;p;1;0.6943023999920115;001;JWML63x;2019_Dec_10_1210;iat_vr;59.947689647234974;
7;GUT;positiv;p;0;7;7;19;p;1;0.5475268000009237;001;JWML63x;2019_Dec_10_1210;iat_vr;59.947689647234974;
7;SCHLIMM;negativ;q;0;8;8;10;q;1;0.5976686000067275;001;JWML63x;2019_Dec_10_1210;iat_vr;59.947689647234974;
7;TIER;Natur;p;0;9;9;3;p;1;0.5322993000008864;001;JWML63x;2019_Dec_10_1210;iat_vr;59.947689647234974;
7;STADT;Gemacht;q;0;10;10;6;q;1;0.6314261000079568;001;JWML63x;2019_Dec_10_1210;iat_vr;59.947689647234974;
7;AUSGEZEICHNET;positiv;p;0;11;11;15;p;1;0.560812600000645;001;JWML63x;2019_Dec_10_1210;iat_vr;59.947689647234974;
7;BLUME;Natur;p;0;12;12;2;p;1;0.7810825999913504;001;JWML63x;2019_Dec_10_1210;iat_vr;59.947689647234974;
7;BAUM;Natur;p;0;13;13;0;p;1;0.6146873999969102;001;JWML63x;2019_Dec_10_1210;iat_vr;59.947689647234974;
7;KLEIDER;Gemacht;q;0;14;14;7;q;1;0.6333200999943074;001;JWML63x;2019_Dec_10_1210;iat_vr;59.947689647234974;
7;NEGATIV;negativ;q;0;15;15;12;q;1;0.6316359000047669;001;JWML63x;2019_Dec_10_1210;iat_vr;59.947689647234974;
7;SCHÄDLICH;negativ;q;0;16;16;13;q;1;0.5553863999957684;001;JWML63x;2019_Dec_10_1210;iat_vr;59.947689647234974;
7;SCHWACH;negativ;q;0;17;17;14;q;1;0.5479803000052925;001;JWML63x;2019_Dec_10_1210;iat_vr;59.947689647234974;
7;HERVORRAGEND;positiv;p;0;18;18;17;p;1;0.6110779000009643;001;JWML63x;2019_Dec_10_1210;iat_vr;59.947689647234974;
7;WASSER;Natur;p;0;19;19;1;p;1;0.5350762000016402;001;JWML63x;2019_Dec_10_1210;iat_vr;59.947689647234974;
7;LAMPE;Gemacht;q;1;0;20;9;q;1;0.5985617000114871;001;JWML63x;2019_Dec_10_1210;iat_vr;59.947689647234974;
7;HERVORRAGEND;positiv;p;1;1;21;17;p;1;0.6015509999997448;001;JWML63x;2019_Dec_10_1210;iat_vr;59.947689647234974;
7;KLEIDER;Gemacht;q;1;2;22;7;q;1;0.8852901999925962;001;JWML63x;2019_Dec_10_1210;iat_vr;59.947689647234974;
7;TIER;Natur;p;1;3;23;3;p;1;0.6524841999926139;001;JWML63x;2019_Dec_10_1210;iat_vr;59.947689647234974;
7;GEBÄUDE;Gemacht;q;1;4;24;5;q;1;0.5944636999920476;001;JWML63x;2019_Dec_10_1210;iat_vr;59.947689647234974;
7;SCHLIMM;negativ;q;1;5;25;10;q;1;0.662125200004084;001;JWML63x;2019_Dec_10_1210;iat_vr;59.947689647234974;
7;NEGATIV;negativ;q;1;6;26;12;q;1;0.5650464000063948;001;JWML63x;2019_Dec_10_1210;iat_vr;59.947689647234974;
7;STADT;Gemacht;q;1;7;27;6;q;1;0.6653534999932162;001;JWML63x;2019_Dec_10_1210;iat_vr;59.947689647234974;
7;STEIN;Natur;p;1;8;28;4;p;1;0.7483631000068272;001;JWML63x;2019_Dec_10_1210;iat_vr;59.947689647234974;
7;COMPUTER;Gemacht;q;1;9;29;8;q;1;0.5802544999896782;001;JWML63x;2019_Dec_10_1210;iat_vr;59.947689647234974;
7;BLUME;Natur;p;1;10;30;2;p;1;0.7474914000049466;001;JWML63x;2019_Dec_10_1210;iat_vr;59.947689647234974;
7;SCHLECHT;negativ;q;1;11;31;11;q;1;0.6518083999981172;001;JWML63x;2019_Dec_10_1210;iat_vr;59.947689647234974;
7;SCHWACH;negativ;q;1;12;32;14;q;1;0.6149224999971921;001;JWML63x;2019_Dec_10_1210;iat_vr;59.947689647234974;
7;POSITIV;positiv;p;1;13;33;18;p;1;0.5794259999966016;001;JWML63x;2019_Dec_10_1210;iat_vr;59.947689647234974;
7;BAUM;Natur;p;1;14;34;0;p;1;0.7326566999981878;001;JWML63x;2019_Dec_10_1210;iat_vr;59.947689647234974;
7;AUSGEZEICHNET;positiv;p;1;15;35;15;p;1;0.6506040999956895;001;JWML63x;2019_Dec_10_1210;iat_vr;59.947689647234974;
7;WASSER;Natur;p;1;16;36;1;p;1;0.91916659999697;001;JWML63x;2019_Dec_10_1210;iat_vr;59.947689647234974;
7;EINWANDFREI;positiv;p;1;17;37;16;p;1;0.6120445999986259;001;JWML63x;2019_Dec_10_1210;iat_vr;59.947689647234974;
7;SCHÄDLICH;negativ;q;1;18;38;13;q;1;0.5631901000015205;001;JWML63x;2019_Dec_10_1210;iat_vr;59.947689647234974;
7;GUT;positiv;p;1;19;39;19;p;1;0.5337494999985211;001;JWML63x;2019_Dec_10_1210;iat_vr;59.947689647234974;
;;;;;;;;;;;001;JWML63x;2019_Dec_10_1210;iat_vr;59.947689647234974;
