Block;Word;Category;CorrResp;trials.thisRepN;trials.thisTrialN;trials.thisN;trials.thisIndex;key_resp_2.keys;key_resp_2.corr;key_resp_2.rt;session;participant;date;expName;frameRate;
1;STADT;Gemacht;p;0;0;0;6;p;1;1.09997559999465;001;JWPJ97x;2019_Dec_10_1400;iat_vr;60.545661718023894;
1;GEBÄUDE;Gemacht;p;0;1;1;5;p;1;0.748175300002913;001;JWPJ97x;2019_Dec_10_1400;iat_vr;60.545661718023894;
1;BAUM;Natur;q;0;2;2;0;q;1;0.5858788000041386;001;JWPJ97x;2019_Dec_10_1400;iat_vr;60.545661718023894;
1;BLUME;Natur;q;0;3;3;2;q;1;0.7792611999902874;001;JWPJ97x;2019_Dec_10_1400;iat_vr;60.545661718023894;
1;COMPUTER;Gemacht;p;0;4;4;8;p;1;0.7524318000068888;001;JWPJ97x;2019_Dec_10_1400;iat_vr;60.545661718023894;
1;LAMPE;Gemacht;p;0;5;5;9;q;0;0.668408500001533;001;JWPJ97x;2019_Dec_10_1400;iat_vr;60.545661718023894;
1;KLEIDER;Gemacht;p;0;6;6;7;p;1;0.9930094000010286;001;JWPJ97x;2019_Dec_10_1400;iat_vr;60.545661718023894;
1;WASSER;Natur;q;0;7;7;1;q;1;0.7787743000080809;001;JWPJ97x;2019_Dec_10_1400;iat_vr;60.545661718023894;
1;TIER;Natur;q;0;8;8;3;q;1;0.8998472000093898;001;JWPJ97x;2019_Dec_10_1400;iat_vr;60.545661718023894;
1;STEIN;Natur;q;0;9;9;4;q;1;0.659426700003678;001;JWPJ97x;2019_Dec_10_1400;iat_vr;60.545661718023894;
1;STADT;Gemacht;p;1;0;10;6;p;1;0.614908599993214;001;JWPJ97x;2019_Dec_10_1400;iat_vr;60.545661718023894;
1;TIER;Natur;q;1;1;11;3;q;1;0.7483600999985356;001;JWPJ97x;2019_Dec_10_1400;iat_vr;60.545661718023894;
1;STEIN;Natur;q;1;2;12;4;p;0;0.7988100000075065;001;JWPJ97x;2019_Dec_10_1400;iat_vr;60.545661718023894;
1;BLUME;Natur;q;1;3;13;2;q;1;0.33009909999964293;001;JWPJ97x;2019_Dec_10_1400;iat_vr;60.545661718023894;
1;BAUM;Natur;q;1;4;14;0;q;1;0.6154749000124866;001;JWPJ97x;2019_Dec_10_1400;iat_vr;60.545661718023894;
1;KLEIDER;Gemacht;p;1;5;15;7;p;1;0.7469045000034384;001;JWPJ97x;2019_Dec_10_1400;iat_vr;60.545661718023894;
1;LAMPE;Gemacht;p;1;6;16;9;p;1;1.163321600004565;001;JWPJ97x;2019_Dec_10_1400;iat_vr;60.545661718023894;
1;COMPUTER;Gemacht;p;1;7;17;8;p;1;0.6112894999969285;001;JWPJ97x;2019_Dec_10_1400;iat_vr;60.545661718023894;
1;GEBÄUDE;Gemacht;p;1;8;18;5;p;1;0.7457722999970429;001;JWPJ97x;2019_Dec_10_1400;iat_vr;60.545661718023894;
1;WASSER;Natur;q;1;9;19;1;q;1;0.6819988999923225;001;JWPJ97x;2019_Dec_10_1400;iat_vr;60.545661718023894;
;;;;;;;;;;;001;JWPJ97x;2019_Dec_10_1400;iat_vr;60.545661718023894;
2;SCHLIMM;negativ;q;0;0;0;0;p;0;0.9108401999983471;001;JWPJ97x;2019_Dec_10_1400;iat_vr;60.545661718023894;
2;EINWANDFREI;positiv;p;0;1;1;6;p;1;0.9120263000077102;001;JWPJ97x;2019_Dec_10_1400;iat_vr;60.545661718023894;
2;NEGATIV;negativ;q;0;2;2;2;q;1;0.4920925000042189;001;JWPJ97x;2019_Dec_10_1400;iat_vr;60.545661718023894;
2;POSITIV;positiv;p;0;3;3;8;p;1;0.6809739000018453;001;JWPJ97x;2019_Dec_10_1400;iat_vr;60.545661718023894;
2;SCHLECHT;negativ;q;0;4;4;1;q;1;0.7616957999998704;001;JWPJ97x;2019_Dec_10_1400;iat_vr;60.545661718023894;
2;AUSGEZEICHNET;positiv;p;0;5;5;5;p;1;0.6683810999966227;001;JWPJ97x;2019_Dec_10_1400;iat_vr;60.545661718023894;
2;GUT;positiv;p;0;6;6;9;p;1;0.6491023999988101;001;JWPJ97x;2019_Dec_10_1400;iat_vr;60.545661718023894;
2;HERVORRAGEND;positiv;p;0;7;7;7;p;1;0.5619812000077218;001;JWPJ97x;2019_Dec_10_1400;iat_vr;60.545661718023894;
2;SCHÄDLICH;negativ;q;0;8;8;3;q;1;0.5636385999969207;001;JWPJ97x;2019_Dec_10_1400;iat_vr;60.545661718023894;
2;SCHWACH;negativ;q;0;9;9;4;q;1;0.6130253000010271;001;JWPJ97x;2019_Dec_10_1400;iat_vr;60.545661718023894;
2;POSITIV;positiv;p;1;0;10;8;p;1;0.7118282000010367;001;JWPJ97x;2019_Dec_10_1400;iat_vr;60.545661718023894;
2;SCHLIMM;negativ;q;1;1;11;0;q;1;0.8644631999923149;001;JWPJ97x;2019_Dec_10_1400;iat_vr;60.545661718023894;
2;HERVORRAGEND;positiv;p;1;2;12;7;p;1;0.6424792000034358;001;JWPJ97x;2019_Dec_10_1400;iat_vr;60.545661718023894;
2;SCHÄDLICH;negativ;q;1;3;13;3;q;1;0.6130635000008624;001;JWPJ97x;2019_Dec_10_1400;iat_vr;60.545661718023894;
2;AUSGEZEICHNET;positiv;p;1;4;14;5;p;1;0.6782146999903489;001;JWPJ97x;2019_Dec_10_1400;iat_vr;60.545661718023894;
2;SCHLECHT;negativ;q;1;5;15;1;q;1;0.6137228000006871;001;JWPJ97x;2019_Dec_10_1400;iat_vr;60.545661718023894;
2;GUT;positiv;p;1;6;16;9;p;1;0.665319499996258;001;JWPJ97x;2019_Dec_10_1400;iat_vr;60.545661718023894;
2;EINWANDFREI;positiv;p;1;7;17;6;p;1;0.5843694000068353;001;JWPJ97x;2019_Dec_10_1400;iat_vr;60.545661718023894;
2;NEGATIV;negativ;q;1;8;18;2;q;1;0.6316546999878483;001;JWPJ97x;2019_Dec_10_1400;iat_vr;60.545661718023894;
2;SCHWACH;negativ;q;1;9;19;4;q;1;0.7469177000020863;001;JWPJ97x;2019_Dec_10_1400;iat_vr;60.545661718023894;
;;;;;;;;;;;001;JWPJ97x;2019_Dec_10_1400;iat_vr;60.545661718023894;
3;LAMPE;Gemacht;p;0;0;0;19;p;1;0.8860398999968311;001;JWPJ97x;2019_Dec_10_1400;iat_vr;60.545661718023894;
3;NEGATIV;negativ;q;0;1;1;2;q;1;0.7142833999969298;001;JWPJ97x;2019_Dec_10_1400;iat_vr;60.545661718023894;
3;SCHÄDLICH;negativ;q;0;2;2;3;q;1;0.629726799990749;001;JWPJ97x;2019_Dec_10_1400;iat_vr;60.545661718023894;
3;COMPUTER;Gemacht;p;0;3;3;18;q;0;0.7338343000010354;001;JWPJ97x;2019_Dec_10_1400;iat_vr;60.545661718023894;
3;TIER;Natur;q;0;4;4;13;q;1;0.7655453000043053;001;JWPJ97x;2019_Dec_10_1400;iat_vr;60.545661718023894;
3;SCHLIMM;negativ;q;0;5;5;0;q;1;0.8590286999969976;001;JWPJ97x;2019_Dec_10_1400;iat_vr;60.545661718023894;
3;AUSGEZEICHNET;positiv;p;0;6;6;5;p;1;0.6624902000039583;001;JWPJ97x;2019_Dec_10_1400;iat_vr;60.545661718023894;
3;STADT;Gemacht;p;0;7;7;16;p;1;0.615611799992621;001;JWPJ97x;2019_Dec_10_1400;iat_vr;60.545661718023894;
3;WASSER;Natur;q;0;8;8;11;q;1;0.8163208000041777;001;JWPJ97x;2019_Dec_10_1400;iat_vr;60.545661718023894;
3;STEIN;Natur;q;0;9;9;14;q;1;0.6004313000012189;001;JWPJ97x;2019_Dec_10_1400;iat_vr;60.545661718023894;
3;SCHWACH;negativ;q;0;10;10;4;q;1;0.6004054000077303;001;JWPJ97x;2019_Dec_10_1400;iat_vr;60.545661718023894;
3;BAUM;Natur;q;0;11;11;10;q;1;0.6359538999968208;001;JWPJ97x;2019_Dec_10_1400;iat_vr;60.545661718023894;
3;POSITIV;positiv;p;0;12;12;8;p;1;0.6971227000030922;001;JWPJ97x;2019_Dec_10_1400;iat_vr;60.545661718023894;
3;EINWANDFREI;positiv;p;0;13;13;6;p;1;0.5459990000090329;001;JWPJ97x;2019_Dec_10_1400;iat_vr;60.545661718023894;
3;KLEIDER;Gemacht;p;0;14;14;17;p;1;0.6774972999992315;001;JWPJ97x;2019_Dec_10_1400;iat_vr;60.545661718023894;
3;HERVORRAGEND;positiv;p;0;15;15;7;q;0;0.6459047000098508;001;JWPJ97x;2019_Dec_10_1400;iat_vr;60.545661718023894;
3;BLUME;Natur;q;0;16;16;12;q;1;0.748125500002061;001;JWPJ97x;2019_Dec_10_1400;iat_vr;60.545661718023894;
3;GEBÄUDE;Gemacht;p;0;17;17;15;p;1;0.7635889999946812;001;JWPJ97x;2019_Dec_10_1400;iat_vr;60.545661718023894;
3;GUT;positiv;p;0;18;18;9;q;0;0.5498748999962118;001;JWPJ97x;2019_Dec_10_1400;iat_vr;60.545661718023894;
3;SCHLECHT;negativ;q;0;19;19;1;q;1;0.6155870999937179;001;JWPJ97x;2019_Dec_10_1400;iat_vr;60.545661718023894;
;;;;;;;;;;;001;JWPJ97x;2019_Dec_10_1400;iat_vr;60.545661718023894;
4;EINWANDFREI;positiv;p;0;0;0;6;p;1;0.7819387000054121;001;JWPJ97x;2019_Dec_10_1400;iat_vr;60.545661718023894;
4;BLUME;Natur;q;0;1;1;12;q;1;1.0157202999980655;001;JWPJ97x;2019_Dec_10_1400;iat_vr;60.545661718023894;
4;POSITIV;positiv;p;0;2;2;8;p;1;0.9142510000092443;001;JWPJ97x;2019_Dec_10_1400;iat_vr;60.545661718023894;
4;SCHÄDLICH;negativ;q;0;3;3;3;q;1;0.9133387000038056;001;JWPJ97x;2019_Dec_10_1400;iat_vr;60.545661718023894;
4;STADT;Gemacht;p;0;4;4;16;p;1;0.8484806000051321;001;JWPJ97x;2019_Dec_10_1400;iat_vr;60.545661718023894;
4;SCHLIMM;negativ;q;0;5;5;0;q;1;0.8814883000013651;001;JWPJ97x;2019_Dec_10_1400;iat_vr;60.545661718023894;
4;HERVORRAGEND;positiv;p;0;6;6;7;p;1;0.8613049999985378;001;JWPJ97x;2019_Dec_10_1400;iat_vr;60.545661718023894;
4;LAMPE;Gemacht;p;0;7;7;19;p;1;0.9311077000020305;001;JWPJ97x;2019_Dec_10_1400;iat_vr;60.545661718023894;
4;NEGATIV;negativ;q;0;8;8;2;q;1;0.930168799997773;001;JWPJ97x;2019_Dec_10_1400;iat_vr;60.545661718023894;
4;GEBÄUDE;Gemacht;p;0;9;9;15;p;1;0.9975666999962414;001;JWPJ97x;2019_Dec_10_1400;iat_vr;60.545661718023894;
4;TIER;Natur;q;0;10;10;13;q;1;0.681012400003965;001;JWPJ97x;2019_Dec_10_1400;iat_vr;60.545661718023894;
4;COMPUTER;Gemacht;p;0;11;11;18;p;1;0.6965170000039507;001;JWPJ97x;2019_Dec_10_1400;iat_vr;60.545661718023894;
4;SCHWACH;negativ;q;0;12;12;4;q;1;0.6809666999906767;001;JWPJ97x;2019_Dec_10_1400;iat_vr;60.545661718023894;
4;SCHLECHT;negativ;q;0;13;13;1;q;1;0.601839300012216;001;JWPJ97x;2019_Dec_10_1400;iat_vr;60.545661718023894;
4;KLEIDER;Gemacht;p;0;14;14;17;p;1;0.7308499999926426;001;JWPJ97x;2019_Dec_10_1400;iat_vr;60.545661718023894;
4;STEIN;Natur;q;0;15;15;14;q;1;0.8808195000019623;001;JWPJ97x;2019_Dec_10_1400;iat_vr;60.545661718023894;
4;AUSGEZEICHNET;positiv;p;0;16;16;5;q;0;0.7087966999970376;001;JWPJ97x;2019_Dec_10_1400;iat_vr;60.545661718023894;
4;BAUM;Natur;q;0;17;17;10;q;1;0.6981879999948433;001;JWPJ97x;2019_Dec_10_1400;iat_vr;60.545661718023894;
4;WASSER;Natur;q;0;18;18;11;q;1;0.6643802999897161;001;JWPJ97x;2019_Dec_10_1400;iat_vr;60.545661718023894;
4;GUT;positiv;p;0;19;19;9;p;1;1.0553048000001581;001;JWPJ97x;2019_Dec_10_1400;iat_vr;60.545661718023894;
4;EINWANDFREI;positiv;p;1;0;20;6;p;1;0.5636122000141768;001;JWPJ97x;2019_Dec_10_1400;iat_vr;60.545661718023894;
4;SCHLIMM;negativ;q;1;1;21;0;q;1;0.5813851999992039;001;JWPJ97x;2019_Dec_10_1400;iat_vr;60.545661718023894;
4;KLEIDER;Gemacht;p;1;2;22;17;p;1;0.6128483999927994;001;JWPJ97x;2019_Dec_10_1400;iat_vr;60.545661718023894;
4;SCHLECHT;negativ;q;1;3;23;1;q;1;0.7124486999964574;001;JWPJ97x;2019_Dec_10_1400;iat_vr;60.545661718023894;
4;STADT;Gemacht;p;1;4;24;16;q;0;0.5248142000054941;001;JWPJ97x;2019_Dec_10_1400;iat_vr;60.545661718023894;
4;NEGATIV;negativ;q;1;5;25;2;q;1;0.6680614000069909;001;JWPJ97x;2019_Dec_10_1400;iat_vr;60.545661718023894;
4;GUT;positiv;p;1;6;26;9;p;1;0.5618536999973003;001;JWPJ97x;2019_Dec_10_1400;iat_vr;60.545661718023894;
4;SCHWACH;negativ;q;1;7;27;4;q;1;0.6162535000039497;001;JWPJ97x;2019_Dec_10_1400;iat_vr;60.545661718023894;
4;GEBÄUDE;Gemacht;p;1;8;28;15;p;1;0.5806653000036022;001;JWPJ97x;2019_Dec_10_1400;iat_vr;60.545661718023894;
4;BAUM;Natur;q;1;9;29;10;q;1;0.6822702999925241;001;JWPJ97x;2019_Dec_10_1400;iat_vr;60.545661718023894;
4;HERVORRAGEND;positiv;p;1;10;30;7;p;1;0.7619267999980366;001;JWPJ97x;2019_Dec_10_1400;iat_vr;60.545661718023894;
4;BLUME;Natur;q;1;11;31;12;q;1;0.597359300008975;001;JWPJ97x;2019_Dec_10_1400;iat_vr;60.545661718023894;
4;POSITIV;positiv;p;1;12;32;8;p;1;0.696352900005877;001;JWPJ97x;2019_Dec_10_1400;iat_vr;60.545661718023894;
4;WASSER;Natur;q;1;13;33;11;q;1;0.6129993999929866;001;JWPJ97x;2019_Dec_10_1400;iat_vr;60.545661718023894;
4;COMPUTER;Gemacht;p;1;14;34;18;p;1;0.5467920000082813;001;JWPJ97x;2019_Dec_10_1400;iat_vr;60.545661718023894;
4;STEIN;Natur;q;1;15;35;14;q;1;0.8628158999927109;001;JWPJ97x;2019_Dec_10_1400;iat_vr;60.545661718023894;
4;LAMPE;Gemacht;p;1;16;36;19;p;1;0.7972774000081699;001;JWPJ97x;2019_Dec_10_1400;iat_vr;60.545661718023894;
4;AUSGEZEICHNET;positiv;p;1;17;37;5;q;0;0.6956720999878598;001;JWPJ97x;2019_Dec_10_1400;iat_vr;60.545661718023894;
4;SCHÄDLICH;negativ;q;1;18;38;3;q;1;0.8342628000100376;001;JWPJ97x;2019_Dec_10_1400;iat_vr;60.545661718023894;
4;TIER;Natur;q;1;19;39;13;p;0;0.6330839000002015;001;JWPJ97x;2019_Dec_10_1400;iat_vr;60.545661718023894;
;;;;;;;;;;;001;JWPJ97x;2019_Dec_10_1400;iat_vr;60.545661718023894;
5;BAUM;Natur;p;0;0;0;0;q;0;0.7864066000038292;001;JWPJ97x;2019_Dec_10_1400;iat_vr;60.545661718023894;
5;GEBÄUDE;Gemacht;q;0;1;1;5;p;0;1.4147305999940727;001;JWPJ97x;2019_Dec_10_1400;iat_vr;60.545661718023894;
5;STADT;Gemacht;q;0;2;2;6;p;0;1.4809095000091475;001;JWPJ97x;2019_Dec_10_1400;iat_vr;60.545661718023894;
5;BLUME;Natur;p;0;3;3;2;p;1;1.498379999989993;001;JWPJ97x;2019_Dec_10_1400;iat_vr;60.545661718023894;
5;LAMPE;Gemacht;q;0;4;4;9;q;1;1.1198098000022583;001;JWPJ97x;2019_Dec_10_1400;iat_vr;60.545661718023894;
5;KLEIDER;Gemacht;q;0;5;5;7;q;1;0.7808663999894634;001;JWPJ97x;2019_Dec_10_1400;iat_vr;60.545661718023894;
5;TIER;Natur;p;0;6;6;3;p;1;1.083677999995416;001;JWPJ97x;2019_Dec_10_1400;iat_vr;60.545661718023894;
5;COMPUTER;Gemacht;q;0;7;7;8;q;1;0.8806352999963565;001;JWPJ97x;2019_Dec_10_1400;iat_vr;60.545661718023894;
5;STEIN;Natur;p;0;8;8;4;p;1;1.06307519999973;001;JWPJ97x;2019_Dec_10_1400;iat_vr;60.545661718023894;
5;WASSER;Natur;p;0;9;9;1;p;1;0.7819057000015164;001;JWPJ97x;2019_Dec_10_1400;iat_vr;60.545661718023894;
5;LAMPE;Gemacht;q;1;0;10;9;q;1;0.6532396999973571;001;JWPJ97x;2019_Dec_10_1400;iat_vr;60.545661718023894;
5;KLEIDER;Gemacht;q;1;1;11;7;q;1;1.1967139000043971;001;JWPJ97x;2019_Dec_10_1400;iat_vr;60.545661718023894;
5;STEIN;Natur;p;1;2;12;4;p;1;1.0026428999990458;001;JWPJ97x;2019_Dec_10_1400;iat_vr;60.545661718023894;
5;COMPUTER;Gemacht;q;1;3;13;8;q;1;0.6521919000078924;001;JWPJ97x;2019_Dec_10_1400;iat_vr;60.545661718023894;
5;BAUM;Natur;p;1;4;14;0;p;1;0.7322284999972908;001;JWPJ97x;2019_Dec_10_1400;iat_vr;60.545661718023894;
5;BLUME;Natur;p;1;5;15;2;p;1;0.5466549999982817;001;JWPJ97x;2019_Dec_10_1400;iat_vr;60.545661718023894;
5;STADT;Gemacht;q;1;6;16;6;q;1;0.7142138999915915;001;JWPJ97x;2019_Dec_10_1400;iat_vr;60.545661718023894;
5;WASSER;Natur;p;1;7;17;1;p;1;0.7146073999902001;001;JWPJ97x;2019_Dec_10_1400;iat_vr;60.545661718023894;
5;GEBÄUDE;Gemacht;q;1;8;18;5;q;1;0.7127790999948047;001;JWPJ97x;2019_Dec_10_1400;iat_vr;60.545661718023894;
5;TIER;Natur;p;1;9;19;3;p;1;0.7491490000102203;001;JWPJ97x;2019_Dec_10_1400;iat_vr;60.545661718023894;
;;;;;;;;;;;001;JWPJ97x;2019_Dec_10_1400;iat_vr;60.545661718023894;
6;BAUM;Natur;p;0;0;0;0;p;1;0.9852281999919796;001;JWPJ97x;2019_Dec_10_1400;iat_vr;60.545661718023894;
6;SCHÄDLICH;negativ;q;0;1;1;13;q;1;0.6638598999998067;001;JWPJ97x;2019_Dec_10_1400;iat_vr;60.545661718023894;
6;WASSER;Natur;p;0;2;2;1;p;1;0.9801596000033896;001;JWPJ97x;2019_Dec_10_1400;iat_vr;60.545661718023894;
6;TIER;Natur;p;0;3;3;3;q;0;0.6624095000006491;001;JWPJ97x;2019_Dec_10_1400;iat_vr;60.545661718023894;
6;SCHLECHT;negativ;q;0;4;4;11;q;1;1.3123326000059023;001;JWPJ97x;2019_Dec_10_1400;iat_vr;60.545661718023894;
6;BLUME;Natur;p;0;5;5;2;p;1;0.6649556000047596;001;JWPJ97x;2019_Dec_10_1400;iat_vr;60.545661718023894;
6;KLEIDER;Gemacht;q;0;6;6;7;q;1;1.0319268000021111;001;JWPJ97x;2019_Dec_10_1400;iat_vr;60.545661718023894;
6;SCHWACH;negativ;q;0;7;7;14;q;1;0.6184008999989601;001;JWPJ97x;2019_Dec_10_1400;iat_vr;60.545661718023894;
6;NEGATIV;negativ;q;0;8;8;12;q;1;0.5967529000045033;001;JWPJ97x;2019_Dec_10_1400;iat_vr;60.545661718023894;
6;LAMPE;Gemacht;q;0;9;9;9;q;1;0.6657058999990113;001;JWPJ97x;2019_Dec_10_1400;iat_vr;60.545661718023894;
6;STEIN;Natur;p;0;10;10;4;p;1;0.714394299997366;001;JWPJ97x;2019_Dec_10_1400;iat_vr;60.545661718023894;
6;POSITIV;positiv;p;0;11;11;18;p;1;0.5961784999963129;001;JWPJ97x;2019_Dec_10_1400;iat_vr;60.545661718023894;
6;GEBÄUDE;Gemacht;q;0;12;12;5;q;1;0.7148004000046058;001;JWPJ97x;2019_Dec_10_1400;iat_vr;60.545661718023894;
6;STADT;Gemacht;q;0;13;13;6;q;1;0.5152672999975039;001;JWPJ97x;2019_Dec_10_1400;iat_vr;60.545661718023894;
6;SCHLIMM;negativ;q;0;14;14;10;q;1;0.7189581999991788;001;JWPJ97x;2019_Dec_10_1400;iat_vr;60.545661718023894;
6;AUSGEZEICHNET;positiv;p;0;15;15;15;p;1;0.7449118000076851;001;JWPJ97x;2019_Dec_10_1400;iat_vr;60.545661718023894;
6;HERVORRAGEND;positiv;p;0;16;16;17;p;1;0.5292961999948602;001;JWPJ97x;2019_Dec_10_1400;iat_vr;60.545661718023894;
6;GUT;positiv;p;0;17;17;19;p;1;0.6322643000021344;001;JWPJ97x;2019_Dec_10_1400;iat_vr;60.545661718023894;
6;COMPUTER;Gemacht;q;0;18;18;8;q;1;0.7687669000006281;001;JWPJ97x;2019_Dec_10_1400;iat_vr;60.545661718023894;
6;EINWANDFREI;positiv;p;0;19;19;16;q;0;0.6117299999896204;001;JWPJ97x;2019_Dec_10_1400;iat_vr;60.545661718023894;
;;;;;;;;;;;001;JWPJ97x;2019_Dec_10_1400;iat_vr;60.545661718023894;
7;GUT;positiv;p;0;0;0;19;p;1;0.6603534000023501;001;JWPJ97x;2019_Dec_10_1400;iat_vr;60.545661718023894;
7;BAUM;Natur;p;0;1;1;0;q;0;0.7808721000037622;001;JWPJ97x;2019_Dec_10_1400;iat_vr;60.545661718023894;
7;POSITIV;positiv;p;0;2;2;18;q;0;1.1475537000078475;001;JWPJ97x;2019_Dec_10_1400;iat_vr;60.545661718023894;
7;BLUME;Natur;p;0;3;3;2;p;1;1.0687402000039583;001;JWPJ97x;2019_Dec_10_1400;iat_vr;60.545661718023894;
7;SCHLECHT;negativ;q;0;4;4;11;q;1;0.6664440999884391;001;JWPJ97x;2019_Dec_10_1400;iat_vr;60.545661718023894;
7;STADT;Gemacht;q;0;5;5;6;q;1;0.5642714999994496;001;JWPJ97x;2019_Dec_10_1400;iat_vr;60.545661718023894;
7;STEIN;Natur;p;0;6;6;4;p;1;0.9986367000092287;001;JWPJ97x;2019_Dec_10_1400;iat_vr;60.545661718023894;
7;KLEIDER;Gemacht;q;0;7;7;7;q;1;0.6471996000036597;001;JWPJ97x;2019_Dec_10_1400;iat_vr;60.545661718023894;
7;HERVORRAGEND;positiv;p;0;8;8;17;p;1;1.1948380999965593;001;JWPJ97x;2019_Dec_10_1400;iat_vr;60.545661718023894;
7;SCHÄDLICH;negativ;q;0;9;9;13;q;1;0.6118721999955596;001;JWPJ97x;2019_Dec_10_1400;iat_vr;60.545661718023894;
7;GEBÄUDE;Gemacht;q;0;10;10;5;q;1;1.0981052999995882;001;JWPJ97x;2019_Dec_10_1400;iat_vr;60.545661718023894;
7;AUSGEZEICHNET;positiv;p;0;11;11;15;p;1;0.777280599999358;001;JWPJ97x;2019_Dec_10_1400;iat_vr;60.545661718023894;
7;SCHWACH;negativ;q;0;12;12;14;q;1;0.7799771000136388;001;JWPJ97x;2019_Dec_10_1400;iat_vr;60.545661718023894;
7;TIER;Natur;p;0;13;13;3;p;1;1.6990205000038259;001;JWPJ97x;2019_Dec_10_1400;iat_vr;60.545661718023894;
7;EINWANDFREI;positiv;p;0;14;14;16;p;1;0.7274361999880057;001;JWPJ97x;2019_Dec_10_1400;iat_vr;60.545661718023894;
7;NEGATIV;negativ;q;0;15;15;12;q;1;0.6142276999889873;001;JWPJ97x;2019_Dec_10_1400;iat_vr;60.545661718023894;
7;LAMPE;Gemacht;q;0;16;16;9;q;1;0.5819843000062974;001;JWPJ97x;2019_Dec_10_1400;iat_vr;60.545661718023894;
7;SCHLIMM;negativ;q;0;17;17;10;q;1;0.6678294000012102;001;JWPJ97x;2019_Dec_10_1400;iat_vr;60.545661718023894;
7;COMPUTER;Gemacht;q;0;18;18;8;q;1;0.6481781999900704;001;JWPJ97x;2019_Dec_10_1400;iat_vr;60.545661718023894;
7;WASSER;Natur;p;0;19;19;1;p;1;0.5467740000021877;001;JWPJ97x;2019_Dec_10_1400;iat_vr;60.545661718023894;
7;WASSER;Natur;p;1;0;20;1;p;1;0.5522467999981018;001;JWPJ97x;2019_Dec_10_1400;iat_vr;60.545661718023894;
7;BAUM;Natur;p;1;1;21;0;p;1;0.5319984999950975;001;JWPJ97x;2019_Dec_10_1400;iat_vr;60.545661718023894;
7;SCHÄDLICH;negativ;q;1;2;22;13;q;1;0.5453182000055676;001;JWPJ97x;2019_Dec_10_1400;iat_vr;60.545661718023894;
7;NEGATIV;negativ;q;1;3;23;12;p;0;0.5807553000049666;001;JWPJ97x;2019_Dec_10_1400;iat_vr;60.545661718023894;
7;EINWANDFREI;positiv;p;1;4;24;16;p;1;0.6187193000077968;001;JWPJ97x;2019_Dec_10_1400;iat_vr;60.545661718023894;
7;SCHWACH;negativ;q;1;5;25;14;q;1;0.4807291000033729;001;JWPJ97x;2019_Dec_10_1400;iat_vr;60.545661718023894;
7;LAMPE;Gemacht;q;1;6;26;9;q;1;0.6312624999991385;001;JWPJ97x;2019_Dec_10_1400;iat_vr;60.545661718023894;
7;STADT;Gemacht;q;1;7;27;6;q;1;0.5519832999998471;001;JWPJ97x;2019_Dec_10_1400;iat_vr;60.545661718023894;
7;AUSGEZEICHNET;positiv;p;1;8;28;15;p;1;0.5102394999994431;001;JWPJ97x;2019_Dec_10_1400;iat_vr;60.545661718023894;
7;KLEIDER;Gemacht;q;1;9;29;7;q;1;0.5970032000041101;001;JWPJ97x;2019_Dec_10_1400;iat_vr;60.545661718023894;
7;GEBÄUDE;Gemacht;q;1;10;30;5;q;1;0.5350202000117861;001;JWPJ97x;2019_Dec_10_1400;iat_vr;60.545661718023894;
7;STEIN;Natur;p;1;11;31;4;p;1;0.7808785000088392;001;JWPJ97x;2019_Dec_10_1400;iat_vr;60.545661718023894;
7;SCHLIMM;negativ;q;1;12;32;10;q;1;0.8309786999889184;001;JWPJ97x;2019_Dec_10_1400;iat_vr;60.545661718023894;
7;POSITIV;positiv;p;1;13;33;18;q;0;0.5142135999922175;001;JWPJ97x;2019_Dec_10_1400;iat_vr;60.545661718023894;
7;BLUME;Natur;p;1;14;34;2;p;1;0.5149853000039002;001;JWPJ97x;2019_Dec_10_1400;iat_vr;60.545661718023894;
7;HERVORRAGEND;positiv;p;1;15;35;17;q;0;0.4447906000132207;001;JWPJ97x;2019_Dec_10_1400;iat_vr;60.545661718023894;
7;GUT;positiv;p;1;16;36;19;p;1;0.6985160999902291;001;JWPJ97x;2019_Dec_10_1400;iat_vr;60.545661718023894;
7;COMPUTER;Gemacht;q;1;17;37;8;q;1;0.6286668999964604;001;JWPJ97x;2019_Dec_10_1400;iat_vr;60.545661718023894;
7;TIER;Natur;p;1;18;38;3;p;1;0.7486448999989079;001;JWPJ97x;2019_Dec_10_1400;iat_vr;60.545661718023894;
7;SCHLECHT;negativ;q;1;19;39;11;q;1;0.8616502999939257;001;JWPJ97x;2019_Dec_10_1400;iat_vr;60.545661718023894;
;;;;;;;;;;;001;JWPJ97x;2019_Dec_10_1400;iat_vr;60.545661718023894;
