Block;Word;Category;CorrResp;trials.thisRepN;trials.thisTrialN;trials.thisN;trials.thisIndex;key_resp_2.keys;key_resp_2.corr;key_resp_2.rt;session;participant;date;expName;frameRate;
1;STEIN;Natur;q;0;0;0;4;q;1;1.058724100003019;001;JWRV98x;2019_Dec_10_0904;iat_vr;60.031360382098505;
1;GEBÄUDE;Gemacht;p;0;1;1;5;p;1;0.6319266999998945;001;JWRV98x;2019_Dec_10_0904;iat_vr;60.031360382098505;
1;KLEIDER;Gemacht;p;0;2;2;7;p;1;0.7235896999991382;001;JWRV98x;2019_Dec_10_0904;iat_vr;60.031360382098505;
1;LAMPE;Gemacht;p;0;3;3;9;p;1;0.6580080999992788;001;JWRV98x;2019_Dec_10_0904;iat_vr;60.031360382098505;
1;BLUME;Natur;q;0;4;4;2;q;1;0.6682644000029541;001;JWRV98x;2019_Dec_10_0904;iat_vr;60.031360382098505;
1;BAUM;Natur;q;0;5;5;0;q;1;0.7659048999994411;001;JWRV98x;2019_Dec_10_0904;iat_vr;60.031360382098505;
1;TIER;Natur;q;0;6;6;3;q;1;0.6144409999978961;001;JWRV98x;2019_Dec_10_0904;iat_vr;60.031360382098505;
1;STADT;Gemacht;p;0;7;7;6;p;1;0.5990100999988499;001;JWRV98x;2019_Dec_10_0904;iat_vr;60.031360382098505;
1;COMPUTER;Gemacht;p;0;8;8;8;p;1;0.7077943999975105;001;JWRV98x;2019_Dec_10_0904;iat_vr;60.031360382098505;
1;WASSER;Natur;q;0;9;9;1;q;1;0.6786864999958198;001;JWRV98x;2019_Dec_10_0904;iat_vr;60.031360382098505;
1;LAMPE;Gemacht;p;1;0;10;9;p;1;0.6651392999992822;001;JWRV98x;2019_Dec_10_0904;iat_vr;60.031360382098505;
1;TIER;Natur;q;1;1;11;3;q;1;0.5808304999954998;001;JWRV98x;2019_Dec_10_0904;iat_vr;60.031360382098505;
1;STADT;Gemacht;p;1;2;12;6;p;1;0.6013886000000639;001;JWRV98x;2019_Dec_10_0904;iat_vr;60.031360382098505;
1;STEIN;Natur;q;1;3;13;4;q;1;0.7317892999999458;001;JWRV98x;2019_Dec_10_0904;iat_vr;60.031360382098505;
1;COMPUTER;Gemacht;p;1;4;14;8;p;1;0.5789510999966296;001;JWRV98x;2019_Dec_10_0904;iat_vr;60.031360382098505;
1;KLEIDER;Gemacht;p;1;5;15;7;p;1;0.6319546999948216;001;JWRV98x;2019_Dec_10_0904;iat_vr;60.031360382098505;
1;BLUME;Natur;q;1;6;16;2;q;1;0.5800215999988723;001;JWRV98x;2019_Dec_10_0904;iat_vr;60.031360382098505;
1;WASSER;Natur;q;1;7;17;1;q;1;0.5480472999988706;001;JWRV98x;2019_Dec_10_0904;iat_vr;60.031360382098505;
1;GEBÄUDE;Gemacht;p;1;8;18;5;p;1;0.49740449999808334;001;JWRV98x;2019_Dec_10_0904;iat_vr;60.031360382098505;
1;BAUM;Natur;q;1;9;19;0;q;1;0.5653783000016119;001;JWRV98x;2019_Dec_10_0904;iat_vr;60.031360382098505;
;;;;;;;;;;;001;JWRV98x;2019_Dec_10_0904;iat_vr;60.031360382098505;
2;SCHWACH;negativ;q;0;0;0;4;q;1;1.7841103000027942;001;JWRV98x;2019_Dec_10_0904;iat_vr;60.031360382098505;
2;SCHLECHT;negativ;q;0;1;1;1;q;1;0.5476018999979715;001;JWRV98x;2019_Dec_10_0904;iat_vr;60.031360382098505;
2;AUSGEZEICHNET;positiv;p;0;2;2;5;p;1;0.6353802000012365;001;JWRV98x;2019_Dec_10_0904;iat_vr;60.031360382098505;
2;SCHLIMM;negativ;q;0;3;3;0;q;1;0.648547899996629;001;JWRV98x;2019_Dec_10_0904;iat_vr;60.031360382098505;
2;EINWANDFREI;positiv;p;0;4;4;6;p;1;0.7428206000040518;001;JWRV98x;2019_Dec_10_0904;iat_vr;60.031360382098505;
2;NEGATIV;negativ;q;0;5;5;2;q;1;0.5922680000003311;001;JWRV98x;2019_Dec_10_0904;iat_vr;60.031360382098505;
2;POSITIV;positiv;p;0;6;6;8;p;1;0.5521603000015602;001;JWRV98x;2019_Dec_10_0904;iat_vr;60.031360382098505;
2;SCHÄDLICH;negativ;q;0;7;7;3;q;1;0.6133664000008139;001;JWRV98x;2019_Dec_10_0904;iat_vr;60.031360382098505;
2;GUT;positiv;p;0;8;8;9;p;1;0.49899749999894993;001;JWRV98x;2019_Dec_10_0904;iat_vr;60.031360382098505;
2;HERVORRAGEND;positiv;p;0;9;9;7;p;1;0.569032999999763;001;JWRV98x;2019_Dec_10_0904;iat_vr;60.031360382098505;
2;NEGATIV;negativ;q;1;0;10;2;q;1;0.4803717999966466;001;JWRV98x;2019_Dec_10_0904;iat_vr;60.031360382098505;
2;GUT;positiv;p;1;1;11;9;p;1;0.48245719999977155;001;JWRV98x;2019_Dec_10_0904;iat_vr;60.031360382098505;
2;AUSGEZEICHNET;positiv;p;1;2;12;5;q;0;0.5619407999984105;001;JWRV98x;2019_Dec_10_0904;iat_vr;60.031360382098505;
2;SCHLECHT;negativ;q;1;3;13;1;q;1;0.8483646000022418;001;JWRV98x;2019_Dec_10_0904;iat_vr;60.031360382098505;
2;SCHÄDLICH;negativ;q;1;4;14;3;q;1;0.5970928000024287;001;JWRV98x;2019_Dec_10_0904;iat_vr;60.031360382098505;
2;HERVORRAGEND;positiv;p;1;5;15;7;p;1;0.5466946999949869;001;JWRV98x;2019_Dec_10_0904;iat_vr;60.031360382098505;
2;POSITIV;positiv;p;1;6;16;8;p;1;0.6521199999988312;001;JWRV98x;2019_Dec_10_0904;iat_vr;60.031360382098505;
2;SCHWACH;negativ;q;1;7;17;4;q;1;0.5477677000017138;001;JWRV98x;2019_Dec_10_0904;iat_vr;60.031360382098505;
2;EINWANDFREI;positiv;p;1;8;18;6;p;1;0.5618934000012814;001;JWRV98x;2019_Dec_10_0904;iat_vr;60.031360382098505;
2;SCHLIMM;negativ;q;1;9;19;0;q;1;0.4983270000011544;001;JWRV98x;2019_Dec_10_0904;iat_vr;60.031360382098505;
;;;;;;;;;;;001;JWRV98x;2019_Dec_10_0904;iat_vr;60.031360382098505;
3;AUSGEZEICHNET;positiv;p;0;0;0;5;p;1;0.7628904000011971;001;JWRV98x;2019_Dec_10_0904;iat_vr;60.031360382098505;
3;KLEIDER;Gemacht;p;0;1;1;17;p;1;0.5644098999982816;001;JWRV98x;2019_Dec_10_0904;iat_vr;60.031360382098505;
3;POSITIV;positiv;p;0;2;2;8;p;1;0.6815465999970911;001;JWRV98x;2019_Dec_10_0904;iat_vr;60.031360382098505;
3;STADT;Gemacht;p;0;3;3;16;p;1;0.5485521000009612;001;JWRV98x;2019_Dec_10_0904;iat_vr;60.031360382098505;
3;TIER;Natur;q;0;4;4;13;q;1;0.5816075999973691;001;JWRV98x;2019_Dec_10_0904;iat_vr;60.031360382098505;
3;LAMPE;Gemacht;p;0;5;5;19;p;1;0.6137558999980683;001;JWRV98x;2019_Dec_10_0904;iat_vr;60.031360382098505;
3;STEIN;Natur;q;0;6;6;14;q;1;0.5486180000007153;001;JWRV98x;2019_Dec_10_0904;iat_vr;60.031360382098505;
3;SCHÄDLICH;negativ;q;0;7;7;3;p;0;0.5174054999952205;001;JWRV98x;2019_Dec_10_0904;iat_vr;60.031360382098505;
3;SCHLIMM;negativ;q;0;8;8;0;q;1;0.780222399997001;001;JWRV98x;2019_Dec_10_0904;iat_vr;60.031360382098505;
3;EINWANDFREI;positiv;p;0;9;9;6;p;1;0.627497499997844;001;JWRV98x;2019_Dec_10_0904;iat_vr;60.031360382098505;
3;GEBÄUDE;Gemacht;p;0;10;10;15;p;1;0.5823103000002448;001;JWRV98x;2019_Dec_10_0904;iat_vr;60.031360382098505;
3;SCHLECHT;negativ;q;0;11;11;1;q;1;0.6482336999979452;001;JWRV98x;2019_Dec_10_0904;iat_vr;60.031360382098505;
3;NEGATIV;negativ;q;0;12;12;2;q;1;0.5474236000009114;001;JWRV98x;2019_Dec_10_0904;iat_vr;60.031360382098505;
3;BLUME;Natur;q;0;13;13;12;q;1;0.6811333000005106;001;JWRV98x;2019_Dec_10_0904;iat_vr;60.031360382098505;
3;BAUM;Natur;q;0;14;14;10;q;1;0.549577900004806;001;JWRV98x;2019_Dec_10_0904;iat_vr;60.031360382098505;
3;WASSER;Natur;q;0;15;15;11;q;1;0.6151435000065248;001;JWRV98x;2019_Dec_10_0904;iat_vr;60.031360382098505;
3;SCHWACH;negativ;q;0;16;16;4;q;1;0.8129933999953209;001;JWRV98x;2019_Dec_10_0904;iat_vr;60.031360382098505;
3;COMPUTER;Gemacht;p;0;17;17;18;p;1;0.5649582000041846;001;JWRV98x;2019_Dec_10_0904;iat_vr;60.031360382098505;
3;GUT;positiv;p;0;18;18;9;p;1;0.7154058000014629;001;JWRV98x;2019_Dec_10_0904;iat_vr;60.031360382098505;
3;HERVORRAGEND;positiv;p;0;19;19;7;p;1;0.5286912999945343;001;JWRV98x;2019_Dec_10_0904;iat_vr;60.031360382098505;
;;;;;;;;;;;001;JWRV98x;2019_Dec_10_0904;iat_vr;60.031360382098505;
4;STADT;Gemacht;p;0;0;0;16;p;1;0.7221542999977828;001;JWRV98x;2019_Dec_10_0904;iat_vr;60.031360382098505;
4;COMPUTER;Gemacht;p;0;1;1;18;p;1;0.5475374000016018;001;JWRV98x;2019_Dec_10_0904;iat_vr;60.031360382098505;
4;BAUM;Natur;q;0;2;2;10;q;1;0.682635900004243;001;JWRV98x;2019_Dec_10_0904;iat_vr;60.031360382098505;
4;GEBÄUDE;Gemacht;p;0;3;3;15;p;1;0.5820441000032588;001;JWRV98x;2019_Dec_10_0904;iat_vr;60.031360382098505;
4;SCHLIMM;negativ;q;0;4;4;0;q;1;0.7295147999975597;001;JWRV98x;2019_Dec_10_0904;iat_vr;60.031360382098505;
4;HERVORRAGEND;positiv;p;0;5;5;7;p;1;0.5623218000037014;001;JWRV98x;2019_Dec_10_0904;iat_vr;60.031360382098505;
4;SCHWACH;negativ;q;0;6;6;4;q;1;0.664744999994582;001;JWRV98x;2019_Dec_10_0904;iat_vr;60.031360382098505;
4;SCHLECHT;negativ;q;0;7;7;1;q;1;0.5518069000027026;001;JWRV98x;2019_Dec_10_0904;iat_vr;60.031360382098505;
4;STEIN;Natur;q;0;8;8;14;q;1;0.7650677999990876;001;JWRV98x;2019_Dec_10_0904;iat_vr;60.031360382098505;
4;KLEIDER;Gemacht;p;0;9;9;17;p;1;0.5649951000013971;001;JWRV98x;2019_Dec_10_0904;iat_vr;60.031360382098505;
4;AUSGEZEICHNET;positiv;p;0;10;10;5;p;1;0.8620089999967604;001;JWRV98x;2019_Dec_10_0904;iat_vr;60.031360382098505;
4;TIER;Natur;q;0;11;11;13;q;1;0.5855138999977498;001;JWRV98x;2019_Dec_10_0904;iat_vr;60.031360382098505;
4;GUT;positiv;p;0;12;12;9;q;0;0.6831407000063336;001;JWRV98x;2019_Dec_10_0904;iat_vr;60.031360382098505;
4;SCHÄDLICH;negativ;q;0;13;13;3;q;1;0.8642098999989685;001;JWRV98x;2019_Dec_10_0904;iat_vr;60.031360382098505;
4;BLUME;Natur;q;0;14;14;12;q;1;0.6157504000002518;001;JWRV98x;2019_Dec_10_0904;iat_vr;60.031360382098505;
4;EINWANDFREI;positiv;p;0;15;15;6;p;1;0.5302418999999645;001;JWRV98x;2019_Dec_10_0904;iat_vr;60.031360382098505;
4;WASSER;Natur;q;0;16;16;11;q;1;0.6197030000039376;001;JWRV98x;2019_Dec_10_0904;iat_vr;60.031360382098505;
4;NEGATIV;negativ;q;0;17;17;2;q;1;0.7981068000008236;001;JWRV98x;2019_Dec_10_0904;iat_vr;60.031360382098505;
4;POSITIV;positiv;p;0;18;18;8;p;1;0.5130011000001105;001;JWRV98x;2019_Dec_10_0904;iat_vr;60.031360382098505;
4;LAMPE;Gemacht;p;0;19;19;19;p;1;0.664409600001818;001;JWRV98x;2019_Dec_10_0904;iat_vr;60.031360382098505;
4;WASSER;Natur;q;1;0;20;11;q;1;0.5462755999978981;001;JWRV98x;2019_Dec_10_0904;iat_vr;60.031360382098505;
4;COMPUTER;Gemacht;p;1;1;21;18;p;1;0.7973567000008188;001;JWRV98x;2019_Dec_10_0904;iat_vr;60.031360382098505;
4;GEBÄUDE;Gemacht;p;1;2;22;15;p;1;0.5961255000001984;001;JWRV98x;2019_Dec_10_0904;iat_vr;60.031360382098505;
4;POSITIV;positiv;p;1;3;23;8;p;1;0.5810343999983161;001;JWRV98x;2019_Dec_10_0904;iat_vr;60.031360382098505;
4;SCHÄDLICH;negativ;q;1;4;24;3;q;1;0.596657399997639;001;JWRV98x;2019_Dec_10_0904;iat_vr;60.031360382098505;
4;EINWANDFREI;positiv;p;1;5;25;6;p;1;0.5612989000001107;001;JWRV98x;2019_Dec_10_0904;iat_vr;60.031360382098505;
4;AUSGEZEICHNET;positiv;p;1;6;26;5;p;1;0.5604244000060135;001;JWRV98x;2019_Dec_10_0904;iat_vr;60.031360382098505;
4;STADT;Gemacht;p;1;7;27;16;p;1;0.5857252999994671;001;JWRV98x;2019_Dec_10_0904;iat_vr;60.031360382098505;
4;BLUME;Natur;q;1;8;28;12;q;1;0.5972818999944138;001;JWRV98x;2019_Dec_10_0904;iat_vr;60.031360382098505;
4;BAUM;Natur;q;1;9;29;10;q;1;0.5994408999977168;001;JWRV98x;2019_Dec_10_0904;iat_vr;60.031360382098505;
4;GUT;positiv;p;1;10;30;9;p;1;0.5164020999945933;001;JWRV98x;2019_Dec_10_0904;iat_vr;60.031360382098505;
4;SCHLIMM;negativ;q;1;11;31;0;q;1;0.6320990000021993;001;JWRV98x;2019_Dec_10_0904;iat_vr;60.031360382098505;
4;SCHLECHT;negativ;q;1;12;32;1;q;1;0.43031019999762066;001;JWRV98x;2019_Dec_10_0904;iat_vr;60.031360382098505;
4;SCHWACH;negativ;q;1;13;33;4;q;1;0.4645874000052572;001;JWRV98x;2019_Dec_10_0904;iat_vr;60.031360382098505;
4;NEGATIV;negativ;q;1;14;34;2;q;1;0.7959540000010747;001;JWRV98x;2019_Dec_10_0904;iat_vr;60.031360382098505;
4;STEIN;Natur;q;1;15;35;14;q;1;0.6770747999980813;001;JWRV98x;2019_Dec_10_0904;iat_vr;60.031360382098505;
4;HERVORRAGEND;positiv;p;1;16;36;7;p;1;0.5663242000009632;001;JWRV98x;2019_Dec_10_0904;iat_vr;60.031360382098505;
4;LAMPE;Gemacht;p;1;17;37;19;p;1;0.501529400004074;001;JWRV98x;2019_Dec_10_0904;iat_vr;60.031360382098505;
4;TIER;Natur;q;1;18;38;13;q;1;0.5497353999962797;001;JWRV98x;2019_Dec_10_0904;iat_vr;60.031360382098505;
4;KLEIDER;Gemacht;p;1;19;39;17;p;1;0.5792518000016571;001;JWRV98x;2019_Dec_10_0904;iat_vr;60.031360382098505;
;;;;;;;;;;;001;JWRV98x;2019_Dec_10_0904;iat_vr;60.031360382098505;
5;BLUME;Natur;p;0;0;0;2;p;1;0.6175971000047866;001;JWRV98x;2019_Dec_10_0904;iat_vr;60.031360382098505;
5;STEIN;Natur;p;0;1;1;4;p;1;0.5499887999976636;001;JWRV98x;2019_Dec_10_0904;iat_vr;60.031360382098505;
5;LAMPE;Gemacht;q;0;2;2;9;q;1;0.6314152000049944;001;JWRV98x;2019_Dec_10_0904;iat_vr;60.031360382098505;
5;WASSER;Natur;p;0;3;3;1;p;1;0.581036800002039;001;JWRV98x;2019_Dec_10_0904;iat_vr;60.031360382098505;
5;STADT;Gemacht;q;0;4;4;6;q;1;0.7808949999962351;001;JWRV98x;2019_Dec_10_0904;iat_vr;60.031360382098505;
5;BAUM;Natur;p;0;5;5;0;p;1;0.5487301000030129;001;JWRV98x;2019_Dec_10_0904;iat_vr;60.031360382098505;
5;TIER;Natur;p;0;6;6;3;p;1;0.4517898999984027;001;JWRV98x;2019_Dec_10_0904;iat_vr;60.031360382098505;
5;KLEIDER;Gemacht;q;0;7;7;7;q;1;0.6963185000058729;001;JWRV98x;2019_Dec_10_0904;iat_vr;60.031360382098505;
5;COMPUTER;Gemacht;q;0;8;8;8;q;1;0.4300158999976702;001;JWRV98x;2019_Dec_10_0904;iat_vr;60.031360382098505;
5;GEBÄUDE;Gemacht;q;0;9;9;5;q;1;0.4475739999979851;001;JWRV98x;2019_Dec_10_0904;iat_vr;60.031360382098505;
5;STADT;Gemacht;q;1;0;10;6;q;1;0.4125304000044707;001;JWRV98x;2019_Dec_10_0904;iat_vr;60.031360382098505;
5;STEIN;Natur;p;1;1;11;4;p;1;0.5170485999988159;001;JWRV98x;2019_Dec_10_0904;iat_vr;60.031360382098505;
5;BLUME;Natur;p;1;2;12;2;p;1;0.38588520000485005;001;JWRV98x;2019_Dec_10_0904;iat_vr;60.031360382098505;
5;GEBÄUDE;Gemacht;q;1;3;13;5;q;1;0.5177975000042352;001;JWRV98x;2019_Dec_10_0904;iat_vr;60.031360382098505;
5;TIER;Natur;p;1;4;14;3;p;1;0.41474770000058925;001;JWRV98x;2019_Dec_10_0904;iat_vr;60.031360382098505;
5;COMPUTER;Gemacht;q;1;5;15;8;q;1;0.5146650000024238;001;JWRV98x;2019_Dec_10_0904;iat_vr;60.031360382098505;
5;BAUM;Natur;p;1;6;16;0;p;1;0.43210009999893373;001;JWRV98x;2019_Dec_10_0904;iat_vr;60.031360382098505;
5;LAMPE;Gemacht;q;1;7;17;9;q;1;0.6993177000040305;001;JWRV98x;2019_Dec_10_0904;iat_vr;60.031360382098505;
5;KLEIDER;Gemacht;q;1;8;18;7;q;1;0.43535330000304384;001;JWRV98x;2019_Dec_10_0904;iat_vr;60.031360382098505;
5;WASSER;Natur;p;1;9;19;1;p;1;0.5483123000012711;001;JWRV98x;2019_Dec_10_0904;iat_vr;60.031360382098505;
;;;;;;;;;;;001;JWRV98x;2019_Dec_10_0904;iat_vr;60.031360382098505;
6;BAUM;Natur;p;0;0;0;0;p;1;0.6899819000027492;001;JWRV98x;2019_Dec_10_0904;iat_vr;60.031360382098505;
6;POSITIV;positiv;p;0;1;1;18;p;1;0.5289925000033691;001;JWRV98x;2019_Dec_10_0904;iat_vr;60.031360382098505;
6;SCHLIMM;negativ;q;0;2;2;10;q;1;0.5305981999990763;001;JWRV98x;2019_Dec_10_0904;iat_vr;60.031360382098505;
6;KLEIDER;Gemacht;q;0;3;3;7;q;1;0.6474051000041072;001;JWRV98x;2019_Dec_10_0904;iat_vr;60.031360382098505;
6;AUSGEZEICHNET;positiv;p;0;4;4;15;p;1;0.5353127999987919;001;JWRV98x;2019_Dec_10_0904;iat_vr;60.031360382098505;
6;HERVORRAGEND;positiv;p;0;5;5;17;p;1;0.5116954000041005;001;JWRV98x;2019_Dec_10_0904;iat_vr;60.031360382098505;
6;EINWANDFREI;positiv;p;0;6;6;16;p;1;0.646124900005816;001;JWRV98x;2019_Dec_10_0904;iat_vr;60.031360382098505;
6;LAMPE;Gemacht;q;0;7;7;9;q;1;0.5632524999964517;001;JWRV98x;2019_Dec_10_0904;iat_vr;60.031360382098505;
6;SCHLECHT;negativ;q;0;8;8;11;q;1;0.46200369999860413;001;JWRV98x;2019_Dec_10_0904;iat_vr;60.031360382098505;
6;NEGATIV;negativ;q;0;9;9;12;q;1;0.4641193000061321;001;JWRV98x;2019_Dec_10_0904;iat_vr;60.031360382098505;
6;WASSER;Natur;p;0;10;10;1;p;1;0.5484623999946052;001;JWRV98x;2019_Dec_10_0904;iat_vr;60.031360382098505;
6;STEIN;Natur;p;0;11;11;4;p;1;0.6469574000002467;001;JWRV98x;2019_Dec_10_0904;iat_vr;60.031360382098505;
6;GEBÄUDE;Gemacht;q;0;12;12;5;q;1;0.5977189000041108;001;JWRV98x;2019_Dec_10_0904;iat_vr;60.031360382098505;
6;COMPUTER;Gemacht;q;0;13;13;8;q;1;0.5308431000012206;001;JWRV98x;2019_Dec_10_0904;iat_vr;60.031360382098505;
6;SCHÄDLICH;negativ;q;0;14;14;13;q;1;0.5110513999970863;001;JWRV98x;2019_Dec_10_0904;iat_vr;60.031360382098505;
6;SCHWACH;negativ;q;0;15;15;14;q;1;0.4792082999992999;001;JWRV98x;2019_Dec_10_0904;iat_vr;60.031360382098505;
6;GUT;positiv;p;0;16;16;19;p;1;0.4311258000016096;001;JWRV98x;2019_Dec_10_0904;iat_vr;60.031360382098505;
6;STADT;Gemacht;q;0;17;17;6;q;1;0.4982635999986087;001;JWRV98x;2019_Dec_10_0904;iat_vr;60.031360382098505;
6;TIER;Natur;p;0;18;18;3;p;1;0.865180100001453;001;JWRV98x;2019_Dec_10_0904;iat_vr;60.031360382098505;
6;BLUME;Natur;p;0;19;19;2;p;1;0.38189499999862164;001;JWRV98x;2019_Dec_10_0904;iat_vr;60.031360382098505;
;;;;;;;;;;;001;JWRV98x;2019_Dec_10_0904;iat_vr;60.031360382098505;
7;GEBÄUDE;Gemacht;q;0;0;0;5;q;1;0.7657533999954467;001;JWRV98x;2019_Dec_10_0904;iat_vr;60.031360382098505;
7;STEIN;Natur;p;0;1;1;4;p;1;0.5988597000032314;001;JWRV98x;2019_Dec_10_0904;iat_vr;60.031360382098505;
7;LAMPE;Gemacht;q;0;2;2;9;q;1;0.698953099999926;001;JWRV98x;2019_Dec_10_0904;iat_vr;60.031360382098505;
7;BLUME;Natur;p;0;3;3;2;p;1;0.5291988000026322;001;JWRV98x;2019_Dec_10_0904;iat_vr;60.031360382098505;
7;EINWANDFREI;positiv;p;0;4;4;16;p;1;0.5457559999995283;001;JWRV98x;2019_Dec_10_0904;iat_vr;60.031360382098505;
7;KLEIDER;Gemacht;q;0;5;5;7;q;1;0.4651344000012614;001;JWRV98x;2019_Dec_10_0904;iat_vr;60.031360382098505;
7;STADT;Gemacht;q;0;6;6;6;q;1;0.682263900001999;001;JWRV98x;2019_Dec_10_0904;iat_vr;60.031360382098505;
7;GUT;positiv;p;0;7;7;19;p;1;0.5164703000045847;001;JWRV98x;2019_Dec_10_0904;iat_vr;60.031360382098505;
7;SCHLECHT;negativ;q;0;8;8;11;q;1;0.44657359999837354;001;JWRV98x;2019_Dec_10_0904;iat_vr;60.031360382098505;
7;NEGATIV;negativ;q;0;9;9;12;q;1;0.49811200000112876;001;JWRV98x;2019_Dec_10_0904;iat_vr;60.031360382098505;
7;SCHWACH;negativ;q;0;10;10;14;q;1;0.38176829999429174;001;JWRV98x;2019_Dec_10_0904;iat_vr;60.031360382098505;
7;WASSER;Natur;p;0;11;11;1;p;1;0.5307992000016384;001;JWRV98x;2019_Dec_10_0904;iat_vr;60.031360382098505;
7;AUSGEZEICHNET;positiv;p;0;12;12;15;p;1;0.48555299999861745;001;JWRV98x;2019_Dec_10_0904;iat_vr;60.031360382098505;
7;TIER;Natur;p;0;13;13;3;p;1;0.5151266999964719;001;JWRV98x;2019_Dec_10_0904;iat_vr;60.031360382098505;
7;SCHÄDLICH;negativ;q;0;14;14;13;q;1;0.47954829999798676;001;JWRV98x;2019_Dec_10_0904;iat_vr;60.031360382098505;
7;BAUM;Natur;p;0;15;15;0;p;1;0.5143916999950306;001;JWRV98x;2019_Dec_10_0904;iat_vr;60.031360382098505;
7;COMPUTER;Gemacht;q;0;16;16;8;q;1;0.4970309999989695;001;JWRV98x;2019_Dec_10_0904;iat_vr;60.031360382098505;
7;POSITIV;positiv;p;0;17;17;18;p;1;0.6091481999974349;001;JWRV98x;2019_Dec_10_0904;iat_vr;60.031360382098505;
7;HERVORRAGEND;positiv;p;0;18;18;17;q;0;0.41156190000037896;001;JWRV98x;2019_Dec_10_0904;iat_vr;60.031360382098505;
7;SCHLIMM;negativ;q;0;19;19;10;q;1;0.6645879999996396;001;JWRV98x;2019_Dec_10_0904;iat_vr;60.031360382098505;
7;EINWANDFREI;positiv;p;1;0;20;16;p;1;0.6449720000018715;001;JWRV98x;2019_Dec_10_0904;iat_vr;60.031360382098505;
7;AUSGEZEICHNET;positiv;p;1;1;21;15;p;1;0.3934386999972048;001;JWRV98x;2019_Dec_10_0904;iat_vr;60.031360382098505;
7;LAMPE;Gemacht;q;1;2;22;9;q;1;0.5645683000038844;001;JWRV98x;2019_Dec_10_0904;iat_vr;60.031360382098505;
7;COMPUTER;Gemacht;q;1;3;23;8;q;1;0.5143943000002764;001;JWRV98x;2019_Dec_10_0904;iat_vr;60.031360382098505;
7;POSITIV;positiv;p;1;4;24;18;p;1;0.5478995000012219;001;JWRV98x;2019_Dec_10_0904;iat_vr;60.031360382098505;
7;GEBÄUDE;Gemacht;q;1;5;25;5;q;1;0.5477046000014525;001;JWRV98x;2019_Dec_10_0904;iat_vr;60.031360382098505;
7;BAUM;Natur;p;1;6;26;0;p;1;0.5980861999996705;001;JWRV98x;2019_Dec_10_0904;iat_vr;60.031360382098505;
7;SCHWACH;negativ;q;1;7;27;14;q;1;0.4649098999943817;001;JWRV98x;2019_Dec_10_0904;iat_vr;60.031360382098505;
7;WASSER;Natur;p;1;8;28;1;p;1;0.4971475000056671;001;JWRV98x;2019_Dec_10_0904;iat_vr;60.031360382098505;
7;STEIN;Natur;p;1;9;29;4;p;1;0.5483278000028804;001;JWRV98x;2019_Dec_10_0904;iat_vr;60.031360382098505;
7;GUT;positiv;p;1;10;30;19;p;1;0.44918560000223806;001;JWRV98x;2019_Dec_10_0904;iat_vr;60.031360382098505;
7;SCHÄDLICH;negativ;q;1;11;31;13;q;1;0.5131720999997924;001;JWRV98x;2019_Dec_10_0904;iat_vr;60.031360382098505;
7;TIER;Natur;p;1;12;32;3;p;1;0.5322331999996095;001;JWRV98x;2019_Dec_10_0904;iat_vr;60.031360382098505;
7;SCHLECHT;negativ;q;1;13;33;11;q;1;0.45248590000119293;001;JWRV98x;2019_Dec_10_0904;iat_vr;60.031360382098505;
7;NEGATIV;negativ;q;1;14;34;12;q;1;0.49605570000130683;001;JWRV98x;2019_Dec_10_0904;iat_vr;60.031360382098505;
7;BLUME;Natur;p;1;15;35;2;p;1;0.5151784999980009;001;JWRV98x;2019_Dec_10_0904;iat_vr;60.031360382098505;
7;KLEIDER;Gemacht;q;1;16;36;7;q;1;0.5977629999979399;001;JWRV98x;2019_Dec_10_0904;iat_vr;60.031360382098505;
7;SCHLIMM;negativ;q;1;17;37;10;q;1;0.4142515999992611;001;JWRV98x;2019_Dec_10_0904;iat_vr;60.031360382098505;
7;HERVORRAGEND;positiv;p;1;18;38;17;p;1;0.5852757000029669;001;JWRV98x;2019_Dec_10_0904;iat_vr;60.031360382098505;
7;STADT;Gemacht;q;1;19;39;6;q;1;0.5644867000009981;001;JWRV98x;2019_Dec_10_0904;iat_vr;60.031360382098505;
;;;;;;;;;;;001;JWRV98x;2019_Dec_10_0904;iat_vr;60.031360382098505;
