Block;Word;Category;CorrResp;trials.thisRepN;trials.thisTrialN;trials.thisN;trials.thisIndex;key_resp_2.keys;key_resp_2.corr;key_resp_2.rt;session;participant;date;expName;frameRate;
1;LAMPE;Gemacht;p;0;0;0;9;q;0;11.806128900000203;001;JWSK96x;2019_Dec_09_1820;iat_vr;59.90560075433401;
1;TIER;Natur;q;0;1;1;3;q;1;2.990522999999939;001;JWSK96x;2019_Dec_09_1820;iat_vr;59.90560075433401;
1;STADT;Gemacht;p;0;2;2;6;p;1;1.5258499999999913;001;JWSK96x;2019_Dec_09_1820;iat_vr;59.90560075433401;
1;WASSER;Natur;q;0;3;3;1;q;1;0.98578869999983;001;JWSK96x;2019_Dec_09_1820;iat_vr;59.90560075433401;
1;KLEIDER;Gemacht;p;0;4;4;7;p;1;1.0792607999997017;001;JWSK96x;2019_Dec_09_1820;iat_vr;59.90560075433401;
1;COMPUTER;Gemacht;p;0;5;5;8;p;1;0.9213002999999844;001;JWSK96x;2019_Dec_09_1820;iat_vr;59.90560075433401;
1;BAUM;Natur;q;0;6;6;0;q;1;0.9333764000002702;001;JWSK96x;2019_Dec_09_1820;iat_vr;59.90560075433401;
1;GEBÄUDE;Gemacht;p;0;7;7;5;p;1;0.8323932000002969;001;JWSK96x;2019_Dec_09_1820;iat_vr;59.90560075433401;
1;BLUME;Natur;q;0;8;8;2;q;1;0.7321674999998322;001;JWSK96x;2019_Dec_09_1820;iat_vr;59.90560075433401;
1;STEIN;Natur;q;0;9;9;4;q;1;0.7776135999997678;001;JWSK96x;2019_Dec_09_1820;iat_vr;59.90560075433401;
1;TIER;Natur;q;1;0;10;3;q;1;0.7826512000001458;001;JWSK96x;2019_Dec_09_1820;iat_vr;59.90560075433401;
1;STEIN;Natur;q;1;1;11;4;q;1;0.6815590999999586;001;JWSK96x;2019_Dec_09_1820;iat_vr;59.90560075433401;
1;BLUME;Natur;q;1;2;12;2;q;1;0.6140619999996488;001;JWSK96x;2019_Dec_09_1820;iat_vr;59.90560075433401;
1;STADT;Gemacht;p;1;3;13;6;p;1;0.8361672999999428;001;JWSK96x;2019_Dec_09_1820;iat_vr;59.90560075433401;
1;WASSER;Natur;q;1;4;14;1;q;1;0.7316540000001623;001;JWSK96x;2019_Dec_09_1820;iat_vr;59.90560075433401;
1;BAUM;Natur;q;1;5;15;0;q;1;0.899188100000174;001;JWSK96x;2019_Dec_09_1820;iat_vr;59.90560075433401;
1;KLEIDER;Gemacht;p;1;6;16;7;p;1;0.8137484000003496;001;JWSK96x;2019_Dec_09_1820;iat_vr;59.90560075433401;
1;GEBÄUDE;Gemacht;p;1;7;17;5;p;1;0.9134278999999879;001;JWSK96x;2019_Dec_09_1820;iat_vr;59.90560075433401;
1;COMPUTER;Gemacht;p;1;8;18;8;p;1;1.2144772999999986;001;JWSK96x;2019_Dec_09_1820;iat_vr;59.90560075433401;
1;LAMPE;Gemacht;p;1;9;19;9;p;1;0.8167035999999825;001;JWSK96x;2019_Dec_09_1820;iat_vr;59.90560075433401;
;;;;;;;;;;;001;JWSK96x;2019_Dec_09_1820;iat_vr;59.90560075433401;
2;AUSGEZEICHNET;positiv;p;0;0;0;5;p;1;1.127687799999876;001;JWSK96x;2019_Dec_09_1820;iat_vr;59.90560075433401;
2;POSITIV;positiv;p;0;1;1;8;p;1;0.7362103999998908;001;JWSK96x;2019_Dec_09_1820;iat_vr;59.90560075433401;
2;SCHLECHT;negativ;q;0;2;2;1;q;1;0.7854714999998578;001;JWSK96x;2019_Dec_09_1820;iat_vr;59.90560075433401;
2;SCHLIMM;negativ;q;0;3;3;0;q;1;0.9650995000001785;001;JWSK96x;2019_Dec_09_1820;iat_vr;59.90560075433401;
2;HERVORRAGEND;positiv;p;0;4;4;7;p;1;0.8446733000000677;001;JWSK96x;2019_Dec_09_1820;iat_vr;59.90560075433401;
2;NEGATIV;negativ;q;0;5;5;2;q;1;0.7809239999996862;001;JWSK96x;2019_Dec_09_1820;iat_vr;59.90560075433401;
2;EINWANDFREI;positiv;p;0;6;6;6;p;1;0.8921751000002587;001;JWSK96x;2019_Dec_09_1820;iat_vr;59.90560075433401;
2;SCHÄDLICH;negativ;q;0;7;7;3;q;1;0.7463142000001426;001;JWSK96x;2019_Dec_09_1820;iat_vr;59.90560075433401;
2;SCHWACH;negativ;q;0;8;8;4;q;1;0.8122999000001982;001;JWSK96x;2019_Dec_09_1820;iat_vr;59.90560075433401;
2;GUT;positiv;p;0;9;9;9;p;1;1.1648365999999442;001;JWSK96x;2019_Dec_09_1820;iat_vr;59.90560075433401;
2;SCHWACH;negativ;q;1;0;10;4;q;1;0.8152079999999842;001;JWSK96x;2019_Dec_09_1820;iat_vr;59.90560075433401;
2;HERVORRAGEND;positiv;p;1;1;11;7;p;1;0.6940645999998196;001;JWSK96x;2019_Dec_09_1820;iat_vr;59.90560075433401;
2;AUSGEZEICHNET;positiv;p;1;2;12;5;p;1;0.7269847000002301;001;JWSK96x;2019_Dec_09_1820;iat_vr;59.90560075433401;
2;SCHLIMM;negativ;q;1;3;13;0;q;1;0.8467659000002641;001;JWSK96x;2019_Dec_09_1820;iat_vr;59.90560075433401;
2;SCHÄDLICH;negativ;q;1;4;14;3;q;1;0.961085799999637;001;JWSK96x;2019_Dec_09_1820;iat_vr;59.90560075433401;
2;NEGATIV;negativ;q;1;5;15;2;q;1;0.6300885999999082;001;JWSK96x;2019_Dec_09_1820;iat_vr;59.90560075433401;
2;EINWANDFREI;positiv;p;1;6;16;6;p;1;0.8092521999997189;001;JWSK96x;2019_Dec_09_1820;iat_vr;59.90560075433401;
2;POSITIV;positiv;p;1;7;17;8;p;1;0.731264700000338;001;JWSK96x;2019_Dec_09_1820;iat_vr;59.90560075433401;
2;SCHLECHT;negativ;q;1;8;18;1;q;1;0.7302424999998038;001;JWSK96x;2019_Dec_09_1820;iat_vr;59.90560075433401;
2;GUT;positiv;p;1;9;19;9;p;1;0.6667465999998967;001;JWSK96x;2019_Dec_09_1820;iat_vr;59.90560075433401;
;;;;;;;;;;;001;JWSK96x;2019_Dec_09_1820;iat_vr;59.90560075433401;
3;SCHÄDLICH;negativ;q;0;0;0;3;q;1;2.1902522999998837;001;JWSK96x;2019_Dec_09_1820;iat_vr;59.90560075433401;
3;COMPUTER;Gemacht;p;0;1;1;18;p;1;1.9684235999998236;001;JWSK96x;2019_Dec_09_1820;iat_vr;59.90560075433401;
3;SCHWACH;negativ;q;0;2;2;4;q;1;0.8983335000002626;001;JWSK96x;2019_Dec_09_1820;iat_vr;59.90560075433401;
3;LAMPE;Gemacht;p;0;3;3;19;p;1;1.1969033999998828;001;JWSK96x;2019_Dec_09_1820;iat_vr;59.90560075433401;
3;NEGATIV;negativ;q;0;4;4;2;q;1;0.7984354999998686;001;JWSK96x;2019_Dec_09_1820;iat_vr;59.90560075433401;
3;BLUME;Natur;q;0;5;5;12;q;1;1.0472522000000026;001;JWSK96x;2019_Dec_09_1820;iat_vr;59.90560075433401;
3;GEBÄUDE;Gemacht;p;0;6;6;15;p;1;1.1965500999999676;001;JWSK96x;2019_Dec_09_1820;iat_vr;59.90560075433401;
3;STADT;Gemacht;p;0;7;7;16;p;1;0.8981807000000117;001;JWSK96x;2019_Dec_09_1820;iat_vr;59.90560075433401;
3;POSITIV;positiv;p;0;8;8;8;p;1;1.9287371999998868;001;JWSK96x;2019_Dec_09_1820;iat_vr;59.90560075433401;
3;WASSER;Natur;q;0;9;9;11;q;1;1.0689310000002479;001;JWSK96x;2019_Dec_09_1820;iat_vr;59.90560075433401;
3;BAUM;Natur;q;0;10;10;10;q;1;0.747956400000021;001;JWSK96x;2019_Dec_09_1820;iat_vr;59.90560075433401;
3;SCHLIMM;negativ;q;0;11;11;0;q;1;0.9446149999998852;001;JWSK96x;2019_Dec_09_1820;iat_vr;59.90560075433401;
3;HERVORRAGEND;positiv;p;0;12;12;7;p;1;0.8767142000001513;001;JWSK96x;2019_Dec_09_1820;iat_vr;59.90560075433401;
3;EINWANDFREI;positiv;p;0;13;13;6;p;1;3.044557199999872;001;JWSK96x;2019_Dec_09_1820;iat_vr;59.90560075433401;
3;TIER;Natur;q;0;14;14;13;q;1;1.0164220000001478;001;JWSK96x;2019_Dec_09_1820;iat_vr;59.90560075433401;
3;STEIN;Natur;q;0;15;15;14;q;1;0.6649577000002864;001;JWSK96x;2019_Dec_09_1820;iat_vr;59.90560075433401;
3;GUT;positiv;p;0;16;16;9;p;1;0.7648452999997062;001;JWSK96x;2019_Dec_09_1820;iat_vr;59.90560075433401;
3;KLEIDER;Gemacht;p;0;17;17;17;p;1;0.7972455999997692;001;JWSK96x;2019_Dec_09_1820;iat_vr;59.90560075433401;
3;AUSGEZEICHNET;positiv;p;0;18;18;5;p;1;2.393717999999808;001;JWSK96x;2019_Dec_09_1820;iat_vr;59.90560075433401;
3;SCHLECHT;negativ;q;0;19;19;1;q;1;0.7812189000001126;001;JWSK96x;2019_Dec_09_1820;iat_vr;59.90560075433401;
;;;;;;;;;;;001;JWSK96x;2019_Dec_09_1820;iat_vr;59.90560075433401;
4;STEIN;Natur;q;0;0;0;14;q;1;0.8342061999996986;001;JWSK96x;2019_Dec_09_1820;iat_vr;59.90560075433401;
4;BLUME;Natur;q;0;1;1;12;q;1;0.5309736999997767;001;JWSK96x;2019_Dec_09_1820;iat_vr;59.90560075433401;
4;BAUM;Natur;q;0;2;2;10;q;1;0.5473713999999745;001;JWSK96x;2019_Dec_09_1820;iat_vr;59.90560075433401;
4;SCHLECHT;negativ;q;0;3;3;1;q;1;0.9183315000000221;001;JWSK96x;2019_Dec_09_1820;iat_vr;59.90560075433401;
4;STADT;Gemacht;p;0;4;4;16;p;1;0.7650761999998394;001;JWSK96x;2019_Dec_09_1820;iat_vr;59.90560075433401;
4;TIER;Natur;q;0;5;5;13;q;1;0.7506507000002784;001;JWSK96x;2019_Dec_09_1820;iat_vr;59.90560075433401;
4;SCHLIMM;negativ;q;0;6;6;0;q;1;0.8618074000000888;001;JWSK96x;2019_Dec_09_1820;iat_vr;59.90560075433401;
4;POSITIV;positiv;p;0;7;7;8;p;1;0.6812055000000328;001;JWSK96x;2019_Dec_09_1820;iat_vr;59.90560075433401;
4;GEBÄUDE;Gemacht;p;0;8;8;15;p;1;2.214312399999926;001;JWSK96x;2019_Dec_09_1820;iat_vr;59.90560075433401;
4;KLEIDER;Gemacht;p;0;9;9;17;p;1;1.0620789999998124;001;JWSK96x;2019_Dec_09_1820;iat_vr;59.90560075433401;
4;HERVORRAGEND;positiv;p;0;10;10;7;p;1;0.784809100000075;001;JWSK96x;2019_Dec_09_1820;iat_vr;59.90560075433401;
4;LAMPE;Gemacht;p;0;11;11;19;p;1;1.5482993000000533;001;JWSK96x;2019_Dec_09_1820;iat_vr;59.90560075433401;
4;EINWANDFREI;positiv;p;0;12;12;6;p;1;1.0631491000003734;001;JWSK96x;2019_Dec_09_1820;iat_vr;59.90560075433401;
4;COMPUTER;Gemacht;p;0;13;13;18;p;1;1.1960354000002553;001;JWSK96x;2019_Dec_09_1820;iat_vr;59.90560075433401;
4;NEGATIV;negativ;q;0;14;14;2;q;1;0.6812433000000055;001;JWSK96x;2019_Dec_09_1820;iat_vr;59.90560075433401;
4;WASSER;Natur;q;0;15;15;11;q;1;0.6815912000001845;001;JWSK96x;2019_Dec_09_1820;iat_vr;59.90560075433401;
4;AUSGEZEICHNET;positiv;p;0;16;16;5;p;1;0.7104838999998719;001;JWSK96x;2019_Dec_09_1820;iat_vr;59.90560075433401;
4;GUT;positiv;p;0;17;17;9;p;1;0.6161173999998937;001;JWSK96x;2019_Dec_09_1820;iat_vr;59.90560075433401;
4;SCHÄDLICH;negativ;q;0;18;18;3;q;1;0.5960981999996875;001;JWSK96x;2019_Dec_09_1820;iat_vr;59.90560075433401;
4;SCHWACH;negativ;q;0;19;19;4;q;1;0.5972953999998936;001;JWSK96x;2019_Dec_09_1820;iat_vr;59.90560075433401;
4;SCHLECHT;negativ;q;1;0;20;1;q;1;0.6816187999997965;001;JWSK96x;2019_Dec_09_1820;iat_vr;59.90560075433401;
4;SCHÄDLICH;negativ;q;1;1;21;3;q;1;0.5691137999997409;001;JWSK96x;2019_Dec_09_1820;iat_vr;59.90560075433401;
4;WASSER;Natur;q;1;2;22;11;q;1;0.8812818999999763;001;JWSK96x;2019_Dec_09_1820;iat_vr;59.90560075433401;
4;BLUME;Natur;q;1;3;23;12;q;1;0.5647272000001067;001;JWSK96x;2019_Dec_09_1820;iat_vr;59.90560075433401;
4;AUSGEZEICHNET;positiv;p;1;4;24;5;p;1;0.6641707000003407;001;JWSK96x;2019_Dec_09_1820;iat_vr;59.90560075433401;
4;KLEIDER;Gemacht;p;1;5;25;17;p;1;0.9019434000001638;001;JWSK96x;2019_Dec_09_1820;iat_vr;59.90560075433401;
4;LAMPE;Gemacht;p;1;6;26;19;p;1;0.5690634999996291;001;JWSK96x;2019_Dec_09_1820;iat_vr;59.90560075433401;
4;EINWANDFREI;positiv;p;1;7;27;6;p;1;1.5464634999998452;001;JWSK96x;2019_Dec_09_1820;iat_vr;59.90560075433401;
4;STEIN;Natur;q;1;8;28;14;p;0;0.7784266000003299;001;JWSK96x;2019_Dec_09_1820;iat_vr;59.90560075433401;
4;GUT;positiv;p;1;9;29;9;p;1;0.9803604000003361;001;JWSK96x;2019_Dec_09_1820;iat_vr;59.90560075433401;
4;POSITIV;positiv;p;1;10;30;8;p;1;1.5475142000000233;001;JWSK96x;2019_Dec_09_1820;iat_vr;59.90560075433401;
4;HERVORRAGEND;positiv;p;1;11;31;7;p;1;0.6690731999997297;001;JWSK96x;2019_Dec_09_1820;iat_vr;59.90560075433401;
4;SCHWACH;negativ;q;1;12;32;4;q;1;0.5975038999999924;001;JWSK96x;2019_Dec_09_1820;iat_vr;59.90560075433401;
4;TIER;Natur;q;1;13;33;13;p;0;0.8489423000000897;001;JWSK96x;2019_Dec_09_1820;iat_vr;59.90560075433401;
4;COMPUTER;Gemacht;p;1;14;34;18;p;1;1.6053501000001233;001;JWSK96x;2019_Dec_09_1820;iat_vr;59.90560075433401;
4;STADT;Gemacht;p;1;15;35;16;p;1;0.9448294999997415;001;JWSK96x;2019_Dec_09_1820;iat_vr;59.90560075433401;
4;GEBÄUDE;Gemacht;p;1;16;36;15;p;1;0.8762233000002198;001;JWSK96x;2019_Dec_09_1820;iat_vr;59.90560075433401;
4;NEGATIV;negativ;q;1;17;37;2;q;1;1.1457994000002145;001;JWSK96x;2019_Dec_09_1820;iat_vr;59.90560075433401;
4;SCHLIMM;negativ;q;1;18;38;0;q;1;0.9795912999998109;001;JWSK96x;2019_Dec_09_1820;iat_vr;59.90560075433401;
4;BAUM;Natur;q;1;19;39;10;p;0;0.7326720000000932;001;JWSK96x;2019_Dec_09_1820;iat_vr;59.90560075433401;
;;;;;;;;;;;001;JWSK96x;2019_Dec_09_1820;iat_vr;59.90560075433401;
5;BAUM;Natur;p;0;0;0;0;p;1;1.2495427000003474;001;JWSK96x;2019_Dec_09_1820;iat_vr;59.90560075433401;
5;STEIN;Natur;p;0;1;1;4;p;1;0.661959399999887;001;JWSK96x;2019_Dec_09_1820;iat_vr;59.90560075433401;
5;TIER;Natur;p;0;2;2;3;p;1;0.4522842999999739;001;JWSK96x;2019_Dec_09_1820;iat_vr;59.90560075433401;
5;WASSER;Natur;p;0;3;3;1;p;1;0.5290067999999337;001;JWSK96x;2019_Dec_09_1820;iat_vr;59.90560075433401;
5;STADT;Gemacht;q;0;4;4;6;q;1;0.6997856000002685;001;JWSK96x;2019_Dec_09_1820;iat_vr;59.90560075433401;
5;COMPUTER;Gemacht;q;0;5;5;8;q;1;0.6004011999998511;001;JWSK96x;2019_Dec_09_1820;iat_vr;59.90560075433401;
5;GEBÄUDE;Gemacht;q;0;6;6;5;q;1;0.7854409000001397;001;JWSK96x;2019_Dec_09_1820;iat_vr;59.90560075433401;
5;KLEIDER;Gemacht;q;0;7;7;7;q;1;0.7142279999998209;001;JWSK96x;2019_Dec_09_1820;iat_vr;59.90560075433401;
5;BLUME;Natur;p;0;8;8;2;p;1;0.5983169999999518;001;JWSK96x;2019_Dec_09_1820;iat_vr;59.90560075433401;
5;LAMPE;Gemacht;q;0;9;9;9;q;1;0.7508799999995972;001;JWSK96x;2019_Dec_09_1820;iat_vr;59.90560075433401;
5;WASSER;Natur;p;1;0;10;1;p;1;0.664572500000304;001;JWSK96x;2019_Dec_09_1820;iat_vr;59.90560075433401;
5;COMPUTER;Gemacht;q;1;1;11;8;q;1;0.5310991000001195;001;JWSK96x;2019_Dec_09_1820;iat_vr;59.90560075433401;
5;BAUM;Natur;p;1;2;12;0;p;1;0.8976491999997052;001;JWSK96x;2019_Dec_09_1820;iat_vr;59.90560075433401;
5;STADT;Gemacht;q;1;3;13;6;q;1;0.8331498000002284;001;JWSK96x;2019_Dec_09_1820;iat_vr;59.90560075433401;
5;BLUME;Natur;p;1;4;14;2;p;1;0.6856268999999884;001;JWSK96x;2019_Dec_09_1820;iat_vr;59.90560075433401;
5;STEIN;Natur;p;1;5;15;4;p;1;0.5636583000000428;001;JWSK96x;2019_Dec_09_1820;iat_vr;59.90560075433401;
5;GEBÄUDE;Gemacht;q;1;6;16;5;q;1;0.9297209999999723;001;JWSK96x;2019_Dec_09_1820;iat_vr;59.90560075433401;
5;LAMPE;Gemacht;q;1;7;17;9;q;1;2.498546599999827;001;JWSK96x;2019_Dec_09_1820;iat_vr;59.90560075433401;
5;KLEIDER;Gemacht;q;1;8;18;7;q;1;0.718981999999869;001;JWSK96x;2019_Dec_09_1820;iat_vr;59.90560075433401;
5;TIER;Natur;p;1;9;19;3;p;1;0.6350474999999278;001;JWSK96x;2019_Dec_09_1820;iat_vr;59.90560075433401;
;;;;;;;;;;;001;JWSK96x;2019_Dec_09_1820;iat_vr;59.90560075433401;
6;KLEIDER;Gemacht;q;0;0;0;7;q;1;2.0784960000000865;001;JWSK96x;2019_Dec_09_1820;iat_vr;59.90560075433401;
6;BAUM;Natur;p;0;1;1;0;p;1;1.2840429000002587;001;JWSK96x;2019_Dec_09_1820;iat_vr;59.90560075433401;
6;SCHLECHT;negativ;q;0;2;2;11;q;1;0.9512181999998575;001;JWSK96x;2019_Dec_09_1820;iat_vr;59.90560075433401;
6;TIER;Natur;p;0;3;3;3;p;1;2.0800215999997818;001;JWSK96x;2019_Dec_09_1820;iat_vr;59.90560075433401;
6;SCHWACH;negativ;q;0;4;4;14;q;1;1.2148835000002691;001;JWSK96x;2019_Dec_09_1820;iat_vr;59.90560075433401;
6;POSITIV;positiv;p;0;5;5;18;p;1;0.7143444000003001;001;JWSK96x;2019_Dec_09_1820;iat_vr;59.90560075433401;
6;LAMPE;Gemacht;q;0;6;6;9;q;1;0.8483827000000019;001;JWSK96x;2019_Dec_09_1820;iat_vr;59.90560075433401;
6;AUSGEZEICHNET;positiv;p;0;7;7;15;p;1;0.7273189000002276;001;JWSK96x;2019_Dec_09_1820;iat_vr;59.90560075433401;
6;WASSER;Natur;p;0;8;8;1;p;1;1.1499438999999256;001;JWSK96x;2019_Dec_09_1820;iat_vr;59.90560075433401;
6;NEGATIV;negativ;q;0;9;9;12;q;1;1.6342572000003202;001;JWSK96x;2019_Dec_09_1820;iat_vr;59.90560075433401;
6;BLUME;Natur;p;0;10;10;2;p;1;0.8019509000000653;001;JWSK96x;2019_Dec_09_1820;iat_vr;59.90560075433401;
6;GUT;positiv;p;0;11;11;19;p;1;0.7496790999998666;001;JWSK96x;2019_Dec_09_1820;iat_vr;59.90560075433401;
6;SCHLIMM;negativ;q;0;12;12;10;q;1;0.7807327000000441;001;JWSK96x;2019_Dec_09_1820;iat_vr;59.90560075433401;
6;HERVORRAGEND;positiv;p;0;13;13;17;p;1;0.7024936000002526;001;JWSK96x;2019_Dec_09_1820;iat_vr;59.90560075433401;
6;STADT;Gemacht;q;0;14;14;6;q;1;0.7148494000002756;001;JWSK96x;2019_Dec_09_1820;iat_vr;59.90560075433401;
6;EINWANDFREI;positiv;p;0;15;15;16;p;1;1.5810825000003206;001;JWSK96x;2019_Dec_09_1820;iat_vr;59.90560075433401;
6;STEIN;Natur;p;0;16;16;4;p;1;0.7477054000000862;001;JWSK96x;2019_Dec_09_1820;iat_vr;59.90560075433401;
6;GEBÄUDE;Gemacht;q;0;17;17;5;q;1;0.8471525999998448;001;JWSK96x;2019_Dec_09_1820;iat_vr;59.90560075433401;
6;COMPUTER;Gemacht;q;0;18;18;8;q;1;0.6130209999996623;001;JWSK96x;2019_Dec_09_1820;iat_vr;59.90560075433401;
6;SCHÄDLICH;negativ;q;0;19;19;13;q;1;0.6139347999996971;001;JWSK96x;2019_Dec_09_1820;iat_vr;59.90560075433401;
;;;;;;;;;;;001;JWSK96x;2019_Dec_09_1820;iat_vr;59.90560075433401;
7;POSITIV;positiv;p;0;0;0;18;p;1;1.0795361000000412;001;JWSK96x;2019_Dec_09_1820;iat_vr;59.90560075433401;
7;HERVORRAGEND;positiv;p;0;1;1;17;p;1;0.6460803999998461;001;JWSK96x;2019_Dec_09_1820;iat_vr;59.90560075433401;
7;SCHLIMM;negativ;q;0;2;2;10;q;1;0.646588999999949;001;JWSK96x;2019_Dec_09_1820;iat_vr;59.90560075433401;
7;BLUME;Natur;p;0;3;3;2;p;1;0.780705300000136;001;JWSK96x;2019_Dec_09_1820;iat_vr;59.90560075433401;
7;LAMPE;Gemacht;q;0;4;4;9;q;1;0.8189679000001888;001;JWSK96x;2019_Dec_09_1820;iat_vr;59.90560075433401;
7;EINWANDFREI;positiv;p;0;5;5;16;p;1;0.9856455999997706;001;JWSK96x;2019_Dec_09_1820;iat_vr;59.90560075433401;
7;WASSER;Natur;p;0;6;6;1;p;1;0.8185470999997051;001;JWSK96x;2019_Dec_09_1820;iat_vr;59.90560075433401;
7;BAUM;Natur;p;0;7;7;0;p;1;1.2443645999996988;001;JWSK96x;2019_Dec_09_1820;iat_vr;59.90560075433401;
7;KLEIDER;Gemacht;q;0;8;8;7;q;1;2.285430500000075;001;JWSK96x;2019_Dec_09_1820;iat_vr;59.90560075433401;
7;TIER;Natur;p;0;9;9;3;p;1;1.448674299999766;001;JWSK96x;2019_Dec_09_1820;iat_vr;59.90560075433401;
7;STEIN;Natur;p;0;10;10;4;p;1;0.5974968999998964;001;JWSK96x;2019_Dec_09_1820;iat_vr;59.90560075433401;
7;STADT;Gemacht;q;0;11;11;6;p;0;0.3998962999999094;001;JWSK96x;2019_Dec_09_1820;iat_vr;59.90560075433401;
7;GEBÄUDE;Gemacht;q;0;12;12;5;q;1;0.733668100000159;001;JWSK96x;2019_Dec_09_1820;iat_vr;59.90560075433401;
7;SCHÄDLICH;negativ;q;0;13;13;13;q;1;0.5927848999999696;001;JWSK96x;2019_Dec_09_1820;iat_vr;59.90560075433401;
7;NEGATIV;negativ;q;0;14;14;12;q;1;0.6129295000000639;001;JWSK96x;2019_Dec_09_1820;iat_vr;59.90560075433401;
7;GUT;positiv;p;0;15;15;19;p;1;0.6162303000000975;001;JWSK96x;2019_Dec_09_1820;iat_vr;59.90560075433401;
7;COMPUTER;Gemacht;q;0;16;16;8;q;1;0.861457199999677;001;JWSK96x;2019_Dec_09_1820;iat_vr;59.90560075433401;
7;AUSGEZEICHNET;positiv;p;0;17;17;15;p;1;0.7944535999999971;001;JWSK96x;2019_Dec_09_1820;iat_vr;59.90560075433401;
7;SCHWACH;negativ;q;0;18;18;14;q;1;0.684625700000197;001;JWSK96x;2019_Dec_09_1820;iat_vr;59.90560075433401;
7;SCHLECHT;negativ;q;0;19;19;11;q;1;0.6356041999997615;001;JWSK96x;2019_Dec_09_1820;iat_vr;59.90560075433401;
7;SCHÄDLICH;negativ;q;1;0;20;13;q;1;0.5005597999997917;001;JWSK96x;2019_Dec_09_1820;iat_vr;59.90560075433401;
7;NEGATIV;negativ;q;1;1;21;12;q;1;0.46859679999988657;001;JWSK96x;2019_Dec_09_1820;iat_vr;59.90560075433401;
7;GUT;positiv;p;1;2;22;19;p;1;0.5632049000000734;001;JWSK96x;2019_Dec_09_1820;iat_vr;59.90560075433401;
7;AUSGEZEICHNET;positiv;p;1;3;23;15;p;1;0.8095822000000226;001;JWSK96x;2019_Dec_09_1820;iat_vr;59.90560075433401;
7;KLEIDER;Gemacht;q;1;4;24;7;q;1;0.6478188000000955;001;JWSK96x;2019_Dec_09_1820;iat_vr;59.90560075433401;
7;SCHLIMM;negativ;q;1;5;25;10;q;1;0.94481339999993;001;JWSK96x;2019_Dec_09_1820;iat_vr;59.90560075433401;
7;SCHLECHT;negativ;q;1;6;26;11;q;1;0.6626147000001765;001;JWSK96x;2019_Dec_09_1820;iat_vr;59.90560075433401;
7;SCHWACH;negativ;q;1;7;27;14;q;1;0.7486413000001448;001;JWSK96x;2019_Dec_09_1820;iat_vr;59.90560075433401;
7;LAMPE;Gemacht;q;1;8;28;9;q;1;0.7321727999997165;001;JWSK96x;2019_Dec_09_1820;iat_vr;59.90560075433401;
7;STEIN;Natur;p;1;9;29;4;p;1;0.6965932000002795;001;JWSK96x;2019_Dec_09_1820;iat_vr;59.90560075433401;
7;POSITIV;positiv;p;1;10;30;18;p;1;0.649306499999966;001;JWSK96x;2019_Dec_09_1820;iat_vr;59.90560075433401;
7;COMPUTER;Gemacht;q;1;11;31;8;q;1;0.8190256999996564;001;JWSK96x;2019_Dec_09_1820;iat_vr;59.90560075433401;
7;HERVORRAGEND;positiv;p;1;12;32;17;p;1;0.8122208999998293;001;JWSK96x;2019_Dec_09_1820;iat_vr;59.90560075433401;
7;EINWANDFREI;positiv;p;1;13;33;16;p;1;0.9797416000001249;001;JWSK96x;2019_Dec_09_1820;iat_vr;59.90560075433401;
7;BAUM;Natur;p;1;14;34;0;p;1;0.5309972999998536;001;JWSK96x;2019_Dec_09_1820;iat_vr;59.90560075433401;
7;WASSER;Natur;p;1;15;35;1;p;1;0.5675098000001526;001;JWSK96x;2019_Dec_09_1820;iat_vr;59.90560075433401;
7;GEBÄUDE;Gemacht;q;1;16;36;5;q;1;0.9190699999999197;001;JWSK96x;2019_Dec_09_1820;iat_vr;59.90560075433401;
7;BLUME;Natur;p;1;17;37;2;p;1;0.7357546000002912;001;JWSK96x;2019_Dec_09_1820;iat_vr;59.90560075433401;
7;TIER;Natur;p;1;18;38;3;p;1;1.0985878000001321;001;JWSK96x;2019_Dec_09_1820;iat_vr;59.90560075433401;
7;STADT;Gemacht;q;1;19;39;6;q;1;1.233853100000033;001;JWSK96x;2019_Dec_09_1820;iat_vr;59.90560075433401;
;;;;;;;;;;;001;JWSK96x;2019_Dec_09_1820;iat_vr;59.90560075433401;
