Block;Word;Category;CorrResp;trials.thisRepN;trials.thisTrialN;trials.thisN;trials.thisIndex;key_resp_2.keys;key_resp_2.corr;key_resp_2.rt;session;participant;date;expName;frameRate;
1;GEBÄUDE;Gemacht;p;0;0;0;5;p;1;1.3826038999832235;002;JWYA97x;2019_Dec_13_1523;iat_vr;60.781590486798045;
1;LAMPE;Gemacht;p;0;1;1;9;p;1;0.6714580999687314;002;JWYA97x;2019_Dec_13_1523;iat_vr;60.781590486798045;
1;BAUM;Natur;q;0;2;2;0;q;1;0.6317088000359945;002;JWYA97x;2019_Dec_13_1523;iat_vr;60.781590486798045;
1;BLUME;Natur;q;0;3;3;2;q;1;0.598357799986843;002;JWYA97x;2019_Dec_13_1523;iat_vr;60.781590486798045;
1;STEIN;Natur;q;0;4;4;4;q;1;0.6061134000192396;002;JWYA97x;2019_Dec_13_1523;iat_vr;60.781590486798045;
1;COMPUTER;Gemacht;p;0;5;5;8;p;1;0.5697344000218436;002;JWYA97x;2019_Dec_13_1523;iat_vr;60.781590486798045;
1;STADT;Gemacht;p;0;6;6;6;p;1;0.7305688999476843;002;JWYA97x;2019_Dec_13_1523;iat_vr;60.781590486798045;
1;WASSER;Natur;q;0;7;7;1;q;1;0.8446911000064574;002;JWYA97x;2019_Dec_13_1523;iat_vr;60.781590486798045;
1;TIER;Natur;q;0;8;8;3;q;1;0.5322928000241518;002;JWYA97x;2019_Dec_13_1523;iat_vr;60.781590486798045;
1;KLEIDER;Gemacht;p;0;9;9;7;p;1;0.6030861000181176;002;JWYA97x;2019_Dec_13_1523;iat_vr;60.781590486798045;
1;GEBÄUDE;Gemacht;p;1;0;10;5;p;1;0.5964488000026904;002;JWYA97x;2019_Dec_13_1523;iat_vr;60.781590486798045;
1;KLEIDER;Gemacht;p;1;1;11;7;p;1;0.7639226000173949;002;JWYA97x;2019_Dec_13_1523;iat_vr;60.781590486798045;
1;COMPUTER;Gemacht;p;1;2;12;8;p;1;0.6946585000259802;002;JWYA97x;2019_Dec_13_1523;iat_vr;60.781590486798045;
1;BLUME;Natur;q;1;3;13;2;q;1;0.6417128999601118;002;JWYA97x;2019_Dec_13_1523;iat_vr;60.781590486798045;
1;STADT;Gemacht;p;1;4;14;6;p;1;0.7982384000206366;002;JWYA97x;2019_Dec_13_1523;iat_vr;60.781590486798045;
1;BAUM;Natur;q;1;5;15;0;q;1;0.6149579000193626;002;JWYA97x;2019_Dec_13_1523;iat_vr;60.781590486798045;
1;TIER;Natur;q;1;6;16;3;q;1;0.7157926999498159;002;JWYA97x;2019_Dec_13_1523;iat_vr;60.781590486798045;
1;STEIN;Natur;q;1;7;17;4;q;1;1.5611118000233546;002;JWYA97x;2019_Dec_13_1523;iat_vr;60.781590486798045;
1;LAMPE;Gemacht;p;1;8;18;9;p;1;0.6497290999977849;002;JWYA97x;2019_Dec_13_1523;iat_vr;60.781590486798045;
1;WASSER;Natur;q;1;9;19;1;q;1;0.6479574000113644;002;JWYA97x;2019_Dec_13_1523;iat_vr;60.781590486798045;
;;;;;;;;;;;002;JWYA97x;2019_Dec_13_1523;iat_vr;60.781590486798045;
2;SCHÄDLICH;negativ;q;0;0;0;3;q;1;1.4445614999858662;002;JWYA97x;2019_Dec_13_1523;iat_vr;60.781590486798045;
2;EINWANDFREI;positiv;p;0;1;1;6;p;1;0.6101248000049964;002;JWYA97x;2019_Dec_13_1523;iat_vr;60.781590486798045;
2;POSITIV;positiv;p;0;2;2;8;p;1;0.5908749999944121;002;JWYA97x;2019_Dec_13_1523;iat_vr;60.781590486798045;
2;GUT;positiv;p;0;3;3;9;p;1;0.5487906000344083;002;JWYA97x;2019_Dec_13_1523;iat_vr;60.781590486798045;
2;SCHLIMM;negativ;q;0;4;4;0;q;1;0.6309662000276148;002;JWYA97x;2019_Dec_13_1523;iat_vr;60.781590486798045;
2;SCHLECHT;negativ;q;0;5;5;1;q;1;0.4796126000001095;002;JWYA97x;2019_Dec_13_1523;iat_vr;60.781590486798045;
2;SCHWACH;negativ;q;0;6;6;4;q;1;0.4976054999860935;002;JWYA97x;2019_Dec_13_1523;iat_vr;60.781590486798045;
2;NEGATIV;negativ;q;0;7;7;2;p;0;0.6139980000443757;002;JWYA97x;2019_Dec_13_1523;iat_vr;60.781590486798045;
2;HERVORRAGEND;positiv;p;0;8;8;7;p;1;0.8610377000295557;002;JWYA97x;2019_Dec_13_1523;iat_vr;60.781590486798045;
2;AUSGEZEICHNET;positiv;p;0;9;9;5;p;1;0.6232214999618009;002;JWYA97x;2019_Dec_13_1523;iat_vr;60.781590486798045;
2;GUT;positiv;p;1;0;10;9;p;1;0.6027216000366025;002;JWYA97x;2019_Dec_13_1523;iat_vr;60.781590486798045;
2;SCHÄDLICH;negativ;q;1;1;11;3;q;1;0.7298595000174828;002;JWYA97x;2019_Dec_13_1523;iat_vr;60.781590486798045;
2;SCHLECHT;negativ;q;1;2;12;1;q;1;0.6641373999882489;002;JWYA97x;2019_Dec_13_1523;iat_vr;60.781590486798045;
2;SCHLIMM;negativ;q;1;3;13;0;q;1;0.6784110000007786;002;JWYA97x;2019_Dec_13_1523;iat_vr;60.781590486798045;
2;NEGATIV;negativ;q;1;4;14;2;q;1;0.7581542999832891;002;JWYA97x;2019_Dec_13_1523;iat_vr;60.781590486798045;
2;AUSGEZEICHNET;positiv;p;1;5;15;5;p;1;0.7285498999990523;002;JWYA97x;2019_Dec_13_1523;iat_vr;60.781590486798045;
2;SCHWACH;negativ;q;1;6;16;4;q;1;0.9632281999802217;002;JWYA97x;2019_Dec_13_1523;iat_vr;60.781590486798045;
2;EINWANDFREI;positiv;p;1;7;17;6;p;1;0.6790782000171021;002;JWYA97x;2019_Dec_13_1523;iat_vr;60.781590486798045;
2;POSITIV;positiv;p;1;8;18;8;p;1;0.7649922000127845;002;JWYA97x;2019_Dec_13_1523;iat_vr;60.781590486798045;
2;HERVORRAGEND;positiv;p;1;9;19;7;p;1;2.211412999953609;002;JWYA97x;2019_Dec_13_1523;iat_vr;60.781590486798045;
;;;;;;;;;;;002;JWYA97x;2019_Dec_13_1523;iat_vr;60.781590486798045;
3;STADT;Gemacht;p;0;0;0;16;p;1;2.5326568000018597;002;JWYA97x;2019_Dec_13_1523;iat_vr;60.781590486798045;
3;LAMPE;Gemacht;p;0;1;1;19;p;1;0.7637413999764249;002;JWYA97x;2019_Dec_13_1523;iat_vr;60.781590486798045;
3;AUSGEZEICHNET;positiv;p;0;2;2;5;p;1;1.8259170000092126;002;JWYA97x;2019_Dec_13_1523;iat_vr;60.781590486798045;
3;SCHÄDLICH;negativ;q;0;3;3;3;q;1;1.0121947000152431;002;JWYA97x;2019_Dec_13_1523;iat_vr;60.781590486798045;
3;TIER;Natur;q;0;4;4;13;q;1;0.9145964999916032;002;JWYA97x;2019_Dec_13_1523;iat_vr;60.781590486798045;
3;STEIN;Natur;q;0;5;5;14;q;1;0.5984378000139259;002;JWYA97x;2019_Dec_13_1523;iat_vr;60.781590486798045;
3;COMPUTER;Gemacht;p;0;6;6;18;p;1;0.6267277000006288;002;JWYA97x;2019_Dec_13_1523;iat_vr;60.781590486798045;
3;GUT;positiv;p;0;7;7;9;p;1;0.9658102999674156;002;JWYA97x;2019_Dec_13_1523;iat_vr;60.781590486798045;
3;BAUM;Natur;q;0;8;8;10;q;1;0.8820778999943286;002;JWYA97x;2019_Dec_13_1523;iat_vr;60.781590486798045;
3;WASSER;Natur;q;0;9;9;11;q;1;0.547709499951452;002;JWYA97x;2019_Dec_13_1523;iat_vr;60.781590486798045;
3;POSITIV;positiv;p;0;10;10;8;p;1;0.8301290000090376;002;JWYA97x;2019_Dec_13_1523;iat_vr;60.781590486798045;
3;SCHWACH;negativ;q;0;11;11;4;q;1;0.7970453999587335;002;JWYA97x;2019_Dec_13_1523;iat_vr;60.781590486798045;
3;GEBÄUDE;Gemacht;p;0;12;12;15;p;1;0.6911450999905355;002;JWYA97x;2019_Dec_13_1523;iat_vr;60.781590486798045;
3;SCHLIMM;negativ;q;0;13;13;0;q;1;1.480595099972561;002;JWYA97x;2019_Dec_13_1523;iat_vr;60.781590486798045;
3;BLUME;Natur;q;0;14;14;12;q;1;0.7991980999941006;002;JWYA97x;2019_Dec_13_1523;iat_vr;60.781590486798045;
3;EINWANDFREI;positiv;p;0;15;15;6;p;1;1.040518899972085;002;JWYA97x;2019_Dec_13_1523;iat_vr;60.781590486798045;
3;KLEIDER;Gemacht;p;0;16;16;17;p;1;1.1332067999755964;002;JWYA97x;2019_Dec_13_1523;iat_vr;60.781590486798045;
3;HERVORRAGEND;positiv;p;0;17;17;7;p;1;1.4616565000033006;002;JWYA97x;2019_Dec_13_1523;iat_vr;60.781590486798045;
3;NEGATIV;negativ;q;0;18;18;2;q;1;0.7138638999895193;002;JWYA97x;2019_Dec_13_1523;iat_vr;60.781590486798045;
3;SCHLECHT;negativ;q;0;19;19;1;q;1;0.7135958999861032;002;JWYA97x;2019_Dec_13_1523;iat_vr;60.781590486798045;
;;;;;;;;;;;002;JWYA97x;2019_Dec_13_1523;iat_vr;60.781590486798045;
4;STADT;Gemacht;p;0;0;0;16;p;1;0.7168461999972351;002;JWYA97x;2019_Dec_13_1523;iat_vr;60.781590486798045;
4;HERVORRAGEND;positiv;p;0;1;1;7;p;1;0.6953785000368953;002;JWYA97x;2019_Dec_13_1523;iat_vr;60.781590486798045;
4;BAUM;Natur;q;0;2;2;10;q;1;0.6150824000360444;002;JWYA97x;2019_Dec_13_1523;iat_vr;60.781590486798045;
4;AUSGEZEICHNET;positiv;p;0;3;3;5;p;1;1.1932968000182882;002;JWYA97x;2019_Dec_13_1523;iat_vr;60.781590486798045;
4;NEGATIV;negativ;q;0;4;4;2;q;1;0.6439364000107162;002;JWYA97x;2019_Dec_13_1523;iat_vr;60.781590486798045;
4;KLEIDER;Gemacht;p;0;5;5;17;p;1;0.6308833999792114;002;JWYA97x;2019_Dec_13_1523;iat_vr;60.781590486798045;
4;GUT;positiv;p;0;6;6;9;p;1;0.749463599990122;002;JWYA97x;2019_Dec_13_1523;iat_vr;60.781590486798045;
4;EINWANDFREI;positiv;p;0;7;7;6;p;1;0.5977781000547111;002;JWYA97x;2019_Dec_13_1523;iat_vr;60.781590486798045;
4;BLUME;Natur;q;0;8;8;12;q;1;1.0638532000011764;002;JWYA97x;2019_Dec_13_1523;iat_vr;60.781590486798045;
4;TIER;Natur;q;0;9;9;13;q;1;0.5652108999784105;002;JWYA97x;2019_Dec_13_1523;iat_vr;60.781590486798045;
4;SCHLECHT;negativ;q;0;10;10;1;p;0;0.6956442999653518;002;JWYA97x;2019_Dec_13_1523;iat_vr;60.781590486798045;
4;LAMPE;Gemacht;p;0;11;11;19;p;1;0.865700599970296;002;JWYA97x;2019_Dec_13_1523;iat_vr;60.781590486798045;
4;STEIN;Natur;q;0;12;12;14;q;1;0.7327505000284873;002;JWYA97x;2019_Dec_13_1523;iat_vr;60.781590486798045;
4;SCHLIMM;negativ;q;0;13;13;0;q;1;1.3807133000227623;002;JWYA97x;2019_Dec_13_1523;iat_vr;60.781590486798045;
4;POSITIV;positiv;p;0;14;14;8;p;1;0.7309699999750592;002;JWYA97x;2019_Dec_13_1523;iat_vr;60.781590486798045;
4;SCHÄDLICH;negativ;q;0;15;15;3;q;1;0.6799954000161961;002;JWYA97x;2019_Dec_13_1523;iat_vr;60.781590486798045;
4;COMPUTER;Gemacht;p;0;16;16;18;p;1;0.6275832999963313;002;JWYA97x;2019_Dec_13_1523;iat_vr;60.781590486798045;
4;WASSER;Natur;q;0;17;17;11;q;1;1.7804121000226587;002;JWYA97x;2019_Dec_13_1523;iat_vr;60.781590486798045;
4;SCHWACH;negativ;q;0;18;18;4;q;1;0.8638371999841183;002;JWYA97x;2019_Dec_13_1523;iat_vr;60.781590486798045;
4;GEBÄUDE;Gemacht;p;0;19;19;15;p;1;0.781385499984026;002;JWYA97x;2019_Dec_13_1523;iat_vr;60.781590486798045;
4;AUSGEZEICHNET;positiv;p;1;0;20;5;p;1;1.1878868999774568;002;JWYA97x;2019_Dec_13_1523;iat_vr;60.781590486798045;
4;WASSER;Natur;q;1;1;21;11;q;1;1.0466340000275522;002;JWYA97x;2019_Dec_13_1523;iat_vr;60.781590486798045;
4;TIER;Natur;q;1;2;22;13;q;1;0.5817633999977261;002;JWYA97x;2019_Dec_13_1523;iat_vr;60.781590486798045;
4;GUT;positiv;p;1;3;23;9;p;1;0.8445441000512801;002;JWYA97x;2019_Dec_13_1523;iat_vr;60.781590486798045;
4;BLUME;Natur;q;1;4;24;12;q;1;2.2817688999930397;002;JWYA97x;2019_Dec_13_1523;iat_vr;60.781590486798045;
4;COMPUTER;Gemacht;p;1;5;25;18;p;1;0.5414517999743111;002;JWYA97x;2019_Dec_13_1523;iat_vr;60.781590486798045;
4;HERVORRAGEND;positiv;p;1;6;26;7;p;1;0.9616341000073589;002;JWYA97x;2019_Dec_13_1523;iat_vr;60.781590486798045;
4;LAMPE;Gemacht;p;1;7;27;19;p;1;0.7982572999899276;002;JWYA97x;2019_Dec_13_1523;iat_vr;60.781590486798045;
4;NEGATIV;negativ;q;1;8;28;2;q;1;1.414223600004334;002;JWYA97x;2019_Dec_13_1523;iat_vr;60.781590486798045;
4;STEIN;Natur;q;1;9;29;14;q;1;0.6274122000322677;002;JWYA97x;2019_Dec_13_1523;iat_vr;60.781590486798045;
4;SCHLIMM;negativ;q;1;10;30;0;q;1;0.6964923000195995;002;JWYA97x;2019_Dec_13_1523;iat_vr;60.781590486798045;
4;BAUM;Natur;q;1;11;31;10;q;1;0.6186432000249624;002;JWYA97x;2019_Dec_13_1523;iat_vr;60.781590486798045;
4;POSITIV;positiv;p;1;12;32;8;p;1;0.7295332999783568;002;JWYA97x;2019_Dec_13_1523;iat_vr;60.781590486798045;
4;KLEIDER;Gemacht;p;1;13;33;17;p;1;0.765308299975004;002;JWYA97x;2019_Dec_13_1523;iat_vr;60.781590486798045;
4;SCHÄDLICH;negativ;q;1;14;34;3;q;1;1.3136340000201017;002;JWYA97x;2019_Dec_13_1523;iat_vr;60.781590486798045;
4;GEBÄUDE;Gemacht;p;1;15;35;15;p;1;0.8621164999785833;002;JWYA97x;2019_Dec_13_1523;iat_vr;60.781590486798045;
4;SCHWACH;negativ;q;1;16;36;4;q;1;0.6144644999876618;002;JWYA97x;2019_Dec_13_1523;iat_vr;60.781590486798045;
4;SCHLECHT;negativ;q;1;17;37;1;q;1;0.5287601000163704;002;JWYA97x;2019_Dec_13_1523;iat_vr;60.781590486798045;
4;EINWANDFREI;positiv;p;1;18;38;6;p;1;0.5791730000055395;002;JWYA97x;2019_Dec_13_1523;iat_vr;60.781590486798045;
4;STADT;Gemacht;p;1;19;39;16;p;1;0.5980424999725074;002;JWYA97x;2019_Dec_13_1523;iat_vr;60.781590486798045;
;;;;;;;;;;;002;JWYA97x;2019_Dec_13_1523;iat_vr;60.781590486798045;
5;COMPUTER;Gemacht;q;0;0;0;8;q;1;2.1037662000162527;002;JWYA97x;2019_Dec_13_1523;iat_vr;60.781590486798045;
5;STEIN;Natur;p;0;1;1;4;p;1;0.7657463999930769;002;JWYA97x;2019_Dec_13_1523;iat_vr;60.781590486798045;
5;BLUME;Natur;p;0;2;2;2;p;1;0.6142760000075214;002;JWYA97x;2019_Dec_13_1523;iat_vr;60.781590486798045;
5;WASSER;Natur;p;0;3;3;1;p;1;0.5673980999854393;002;JWYA97x;2019_Dec_13_1523;iat_vr;60.781590486798045;
5;GEBÄUDE;Gemacht;q;0;4;4;5;q;1;0.6479249999974854;002;JWYA97x;2019_Dec_13_1523;iat_vr;60.781590486798045;
5;TIER;Natur;p;0;5;5;3;p;1;0.7148722999845631;002;JWYA97x;2019_Dec_13_1523;iat_vr;60.781590486798045;
5;LAMPE;Gemacht;q;0;6;6;9;q;1;0.6482589000370353;002;JWYA97x;2019_Dec_13_1523;iat_vr;60.781590486798045;
5;BAUM;Natur;p;0;7;7;0;p;1;0.6156481000361964;002;JWYA97x;2019_Dec_13_1523;iat_vr;60.781590486798045;
5;KLEIDER;Gemacht;q;0;8;8;7;q;1;0.896124700026121;002;JWYA97x;2019_Dec_13_1523;iat_vr;60.781590486798045;
5;STADT;Gemacht;q;0;9;9;6;q;1;0.6000403999933042;002;JWYA97x;2019_Dec_13_1523;iat_vr;60.781590486798045;
5;STEIN;Natur;p;1;0;10;4;p;1;0.6322311999974772;002;JWYA97x;2019_Dec_13_1523;iat_vr;60.781590486798045;
5;STADT;Gemacht;q;1;1;11;6;q;1;0.8482029000297189;002;JWYA97x;2019_Dec_13_1523;iat_vr;60.781590486798045;
5;KLEIDER;Gemacht;q;1;2;12;7;p;0;0.6627883000182919;002;JWYA97x;2019_Dec_13_1523;iat_vr;60.781590486798045;
5;WASSER;Natur;p;1;3;13;1;p;1;1.199950800044462;002;JWYA97x;2019_Dec_13_1523;iat_vr;60.781590486798045;
5;GEBÄUDE;Gemacht;q;1;4;14;5;q;1;0.6338732999865897;002;JWYA97x;2019_Dec_13_1523;iat_vr;60.781590486798045;
5;BAUM;Natur;p;1;5;15;0;p;1;0.6507060999865644;002;JWYA97x;2019_Dec_13_1523;iat_vr;60.781590486798045;
5;BLUME;Natur;p;1;6;16;2;p;1;0.4854248000192456;002;JWYA97x;2019_Dec_13_1523;iat_vr;60.781590486798045;
5;COMPUTER;Gemacht;q;1;7;17;8;q;1;1.077773500001058;002;JWYA97x;2019_Dec_13_1523;iat_vr;60.781590486798045;
5;TIER;Natur;p;1;8;18;3;p;1;0.6127069999929518;002;JWYA97x;2019_Dec_13_1523;iat_vr;60.781590486798045;
5;LAMPE;Gemacht;q;1;9;19;9;q;1;0.596441000001505;002;JWYA97x;2019_Dec_13_1523;iat_vr;60.781590486798045;
;;;;;;;;;;;002;JWYA97x;2019_Dec_13_1523;iat_vr;60.781590486798045;
6;GEBÄUDE;Gemacht;q;0;0;0;5;q;1;0.8331154999905266;002;JWYA97x;2019_Dec_13_1523;iat_vr;60.781590486798045;
6;TIER;Natur;p;0;1;1;3;p;1;0.7491650999872945;002;JWYA97x;2019_Dec_13_1523;iat_vr;60.781590486798045;
6;SCHLECHT;negativ;q;0;2;2;11;q;1;1.2639629999757744;002;JWYA97x;2019_Dec_13_1523;iat_vr;60.781590486798045;
6;STADT;Gemacht;q;0;3;3;6;q;1;0.6621812000521459;002;JWYA97x;2019_Dec_13_1523;iat_vr;60.781590486798045;
6;EINWANDFREI;positiv;p;0;4;4;16;p;1;0.7640465999720618;002;JWYA97x;2019_Dec_13_1523;iat_vr;60.781590486798045;
6;AUSGEZEICHNET;positiv;p;0;5;5;15;p;1;0.5620589000172913;002;JWYA97x;2019_Dec_13_1523;iat_vr;60.781590486798045;
6;WASSER;Natur;p;0;6;6;1;p;1;0.6294232000363991;002;JWYA97x;2019_Dec_13_1523;iat_vr;60.781590486798045;
6;KLEIDER;Gemacht;q;0;7;7;7;q;1;0.7980903999996372;002;JWYA97x;2019_Dec_13_1523;iat_vr;60.781590486798045;
6;SCHÄDLICH;negativ;q;0;8;8;13;q;1;0.5451252000057139;002;JWYA97x;2019_Dec_13_1523;iat_vr;60.781590486798045;
6;SCHWACH;negativ;q;0;9;9;14;q;1;0.6630358000402339;002;JWYA97x;2019_Dec_13_1523;iat_vr;60.781590486798045;
6;SCHLIMM;negativ;q;0;10;10;10;q;1;0.5316504999645986;002;JWYA97x;2019_Dec_13_1523;iat_vr;60.781590486798045;
6;LAMPE;Gemacht;q;0;11;11;9;q;1;0.7112451000139117;002;JWYA97x;2019_Dec_13_1523;iat_vr;60.781590486798045;
6;HERVORRAGEND;positiv;p;0;12;12;17;p;1;0.576134400034789;002;JWYA97x;2019_Dec_13_1523;iat_vr;60.781590486798045;
6;COMPUTER;Gemacht;q;0;13;13;8;q;1;0.7972152000293136;002;JWYA97x;2019_Dec_13_1523;iat_vr;60.781590486798045;
6;BAUM;Natur;p;0;14;14;0;p;1;0.6831577999982983;002;JWYA97x;2019_Dec_13_1523;iat_vr;60.781590486798045;
6;BLUME;Natur;p;0;15;15;2;p;1;0.5331883000326343;002;JWYA97x;2019_Dec_13_1523;iat_vr;60.781590486798045;
6;POSITIV;positiv;p;0;16;16;18;p;1;0.5961467000306584;002;JWYA97x;2019_Dec_13_1523;iat_vr;60.781590486798045;
6;STEIN;Natur;p;0;17;17;4;p;1;0.5818507000221871;002;JWYA97x;2019_Dec_13_1523;iat_vr;60.781590486798045;
6;GUT;positiv;p;0;18;18;19;p;1;0.6149856999982148;002;JWYA97x;2019_Dec_13_1523;iat_vr;60.781590486798045;
6;NEGATIV;negativ;q;0;19;19;12;q;1;0.6811727000167593;002;JWYA97x;2019_Dec_13_1523;iat_vr;60.781590486798045;
;;;;;;;;;;;002;JWYA97x;2019_Dec_13_1523;iat_vr;60.781590486798045;
7;BAUM;Natur;p;0;0;0;0;p;1;0.920340699958615;002;JWYA97x;2019_Dec_13_1523;iat_vr;60.781590486798045;
7;GEBÄUDE;Gemacht;q;0;1;1;5;q;1;0.6651729000150226;002;JWYA97x;2019_Dec_13_1523;iat_vr;60.781590486798045;
7;AUSGEZEICHNET;positiv;p;0;2;2;15;p;1;0.7287785999942571;002;JWYA97x;2019_Dec_13_1523;iat_vr;60.781590486798045;
7;SCHLECHT;negativ;q;0;3;3;11;q;1;0.7248779000365175;002;JWYA97x;2019_Dec_13_1523;iat_vr;60.781590486798045;
7;STADT;Gemacht;q;0;4;4;6;q;1;0.9977270999806933;002;JWYA97x;2019_Dec_13_1523;iat_vr;60.781590486798045;
7;COMPUTER;Gemacht;q;0;5;5;8;q;1;0.6953553999774158;002;JWYA97x;2019_Dec_13_1523;iat_vr;60.781590486798045;
7;BLUME;Natur;p;0;6;6;2;p;1;0.580587700009346;002;JWYA97x;2019_Dec_13_1523;iat_vr;60.781590486798045;
7;KLEIDER;Gemacht;q;0;7;7;7;q;1;0.6636987999663688;002;JWYA97x;2019_Dec_13_1523;iat_vr;60.781590486798045;
7;EINWANDFREI;positiv;p;0;8;8;16;p;1;0.6612147999694571;002;JWYA97x;2019_Dec_13_1523;iat_vr;60.781590486798045;
7;SCHÄDLICH;negativ;q;0;9;9;13;q;1;0.6130910000065342;002;JWYA97x;2019_Dec_13_1523;iat_vr;60.781590486798045;
7;SCHWACH;negativ;q;0;10;10;14;q;1;1.1431711000041105;002;JWYA97x;2019_Dec_13_1523;iat_vr;60.781590486798045;
7;GUT;positiv;p;0;11;11;19;p;1;0.549757500004489;002;JWYA97x;2019_Dec_13_1523;iat_vr;60.781590486798045;
7;LAMPE;Gemacht;q;0;12;12;9;q;1;0.6310929000028409;002;JWYA97x;2019_Dec_13_1523;iat_vr;60.781590486798045;
7;SCHLIMM;negativ;q;0;13;13;10;p;0;0.7477638000273146;002;JWYA97x;2019_Dec_13_1523;iat_vr;60.781590486798045;
7;TIER;Natur;p;0;14;14;3;p;1;1.0647999999928288;002;JWYA97x;2019_Dec_13_1523;iat_vr;60.781590486798045;
7;HERVORRAGEND;positiv;p;0;15;15;17;p;1;0.8258677999838255;002;JWYA97x;2019_Dec_13_1523;iat_vr;60.781590486798045;
7;NEGATIV;negativ;q;0;16;16;12;q;1;0.7308454999583773;002;JWYA97x;2019_Dec_13_1523;iat_vr;60.781590486798045;
7;STEIN;Natur;p;0;17;17;4;q;0;0.6976600000052713;002;JWYA97x;2019_Dec_13_1523;iat_vr;60.781590486798045;
7;POSITIV;positiv;p;0;18;18;18;p;1;0.9124007999780588;002;JWYA97x;2019_Dec_13_1523;iat_vr;60.781590486798045;
7;WASSER;Natur;p;0;19;19;1;p;1;0.5474971999647096;002;JWYA97x;2019_Dec_13_1523;iat_vr;60.781590486798045;
7;NEGATIV;negativ;q;1;0;20;12;q;1;0.6633990000118501;002;JWYA97x;2019_Dec_13_1523;iat_vr;60.781590486798045;
7;STADT;Gemacht;q;1;1;21;6;q;1;0.6656990999472328;002;JWYA97x;2019_Dec_13_1523;iat_vr;60.781590486798045;
7;SCHLECHT;negativ;q;1;2;22;11;q;1;0.7952355000306852;002;JWYA97x;2019_Dec_13_1523;iat_vr;60.781590486798045;
7;GUT;positiv;p;1;3;23;19;p;1;0.731634599971585;002;JWYA97x;2019_Dec_13_1523;iat_vr;60.781590486798045;
7;EINWANDFREI;positiv;p;1;4;24;16;p;1;0.6759545999811962;002;JWYA97x;2019_Dec_13_1523;iat_vr;60.781590486798045;
7;LAMPE;Gemacht;q;1;5;25;9;q;1;1.1148734000162221;002;JWYA97x;2019_Dec_13_1523;iat_vr;60.781590486798045;
7;SCHWACH;negativ;q;1;6;26;14;q;1;1.311589900054969;002;JWYA97x;2019_Dec_13_1523;iat_vr;60.781590486798045;
7;SCHÄDLICH;negativ;q;1;7;27;13;q;1;0.5556798999896273;002;JWYA97x;2019_Dec_13_1523;iat_vr;60.781590486798045;
7;AUSGEZEICHNET;positiv;p;1;8;28;15;q;0;0.5777200000011362;002;JWYA97x;2019_Dec_13_1523;iat_vr;60.781590486798045;
7;TIER;Natur;p;1;9;29;3;p;1;1.115687000041362;002;JWYA97x;2019_Dec_13_1523;iat_vr;60.781590486798045;
7;BLUME;Natur;p;1;10;30;2;p;1;0.9315627999603748;002;JWYA97x;2019_Dec_13_1523;iat_vr;60.781590486798045;
7;STEIN;Natur;p;1;11;31;4;p;1;0.798296399996616;002;JWYA97x;2019_Dec_13_1523;iat_vr;60.781590486798045;
7;GEBÄUDE;Gemacht;q;1;12;32;5;q;1;1.0440436999779195;002;JWYA97x;2019_Dec_13_1523;iat_vr;60.781590486798045;
7;SCHLIMM;negativ;q;1;13;33;10;q;1;0.6649164999835193;002;JWYA97x;2019_Dec_13_1523;iat_vr;60.781590486798045;
7;KLEIDER;Gemacht;q;1;14;34;7;q;1;0.78054589999374;002;JWYA97x;2019_Dec_13_1523;iat_vr;60.781590486798045;
7;BAUM;Natur;p;1;15;35;0;p;1;0.9398109999601729;002;JWYA97x;2019_Dec_13_1523;iat_vr;60.781590486798045;
7;HERVORRAGEND;positiv;p;1;16;36;17;p;1;0.5880477000027895;002;JWYA97x;2019_Dec_13_1523;iat_vr;60.781590486798045;
7;WASSER;Natur;p;1;17;37;1;p;1;0.5817611999809742;002;JWYA97x;2019_Dec_13_1523;iat_vr;60.781590486798045;
7;COMPUTER;Gemacht;q;1;18;38;8;q;1;1.2302430999698117;002;JWYA97x;2019_Dec_13_1523;iat_vr;60.781590486798045;
7;POSITIV;positiv;p;1;19;39;18;p;1;0.8469268000335433;002;JWYA97x;2019_Dec_13_1523;iat_vr;60.781590486798045;
;;;;;;;;;;;002;JWYA97x;2019_Dec_13_1523;iat_vr;60.781590486798045;
