Block;Word;Category;CorrResp;trials.thisRepN;trials.thisTrialN;trials.thisN;trials.thisIndex;key_resp_2.keys;key_resp_2.corr;key_resp_2.rt;session;participant;date;expName;frameRate;
1;GEBÄUDE;Gemacht;p;0;0;0;5;p;1;1.0678838999992877;002;NSAS99;2019_Dec_05_1419;iat_vr;60.078354189919956;
1;STEIN;Natur;q;0;1;1;4;q;1;0.5810349000003043;002;NSAS99;2019_Dec_05_1419;iat_vr;60.078354189919956;
1;STADT;Gemacht;p;0;2;2;6;p;1;0.577167700001155;002;NSAS99;2019_Dec_05_1419;iat_vr;60.078354189919956;
1;COMPUTER;Gemacht;p;0;3;3;8;p;1;0.7748011000003316;002;NSAS99;2019_Dec_05_1419;iat_vr;60.078354189919956;
1;WASSER;Natur;q;0;4;4;1;q;1;0.5442351000001509;002;NSAS99;2019_Dec_05_1419;iat_vr;60.078354189919956;
1;LAMPE;Gemacht;p;0;5;5;9;p;1;0.5940461999998661;002;NSAS99;2019_Dec_05_1419;iat_vr;60.078354189919956;
1;BLUME;Natur;q;0;6;6;2;q;1;0.7687501000000339;002;NSAS99;2019_Dec_05_1419;iat_vr;60.078354189919956;
1;KLEIDER;Gemacht;p;0;7;7;7;p;1;0.5523773999993864;002;NSAS99;2019_Dec_05_1419;iat_vr;60.078354189919956;
1;TIER;Natur;q;0;8;8;3;q;1;0.5653868000008515;002;NSAS99;2019_Dec_05_1419;iat_vr;60.078354189919956;
1;BAUM;Natur;q;0;9;9;0;q;1;0.5247316000004503;002;NSAS99;2019_Dec_05_1419;iat_vr;60.078354189919956;
1;KLEIDER;Gemacht;p;1;0;10;7;p;1;0.5868244000012055;002;NSAS99;2019_Dec_05_1419;iat_vr;60.078354189919956;
1;STADT;Gemacht;p;1;1;11;6;p;1;0.5345445000002655;002;NSAS99;2019_Dec_05_1419;iat_vr;60.078354189919956;
1;BLUME;Natur;q;1;2;12;2;q;1;0.5681263999995281;002;NSAS99;2019_Dec_05_1419;iat_vr;60.078354189919956;
1;BAUM;Natur;q;1;3;13;0;q;1;0.535586100000728;002;NSAS99;2019_Dec_05_1419;iat_vr;60.078354189919956;
1;COMPUTER;Gemacht;p;1;4;14;8;p;1;0.7137013999999908;002;NSAS99;2019_Dec_05_1419;iat_vr;60.078354189919956;
1;STEIN;Natur;q;1;5;15;4;q;1;0.514919799999916;002;NSAS99;2019_Dec_05_1419;iat_vr;60.078354189919956;
1;WASSER;Natur;q;1;6;16;1;q;1;0.6019673999999213;002;NSAS99;2019_Dec_05_1419;iat_vr;60.078354189919956;
1;TIER;Natur;q;1;7;17;3;q;1;0.5819236999996065;002;NSAS99;2019_Dec_05_1419;iat_vr;60.078354189919956;
1;GEBÄUDE;Gemacht;p;1;8;18;5;p;1;0.5139152000010654;002;NSAS99;2019_Dec_05_1419;iat_vr;60.078354189919956;
1;LAMPE;Gemacht;p;1;9;19;9;p;1;0.46244730000034906;002;NSAS99;2019_Dec_05_1419;iat_vr;60.078354189919956;
;;;;;;;;;;;002;NSAS99;2019_Dec_05_1419;iat_vr;60.078354189919956;
2;HERVORRAGEND;positiv;p;0;0;0;7;p;1;0.6815343999987817;002;NSAS99;2019_Dec_05_1419;iat_vr;60.078354189919956;
2;GUT;positiv;p;0;1;1;9;p;1;0.5802757999990718;002;NSAS99;2019_Dec_05_1419;iat_vr;60.078354189919956;
2;SCHLIMM;negativ;q;0;2;2;0;q;1;0.6026325000002544;002;NSAS99;2019_Dec_05_1419;iat_vr;60.078354189919956;
2;EINWANDFREI;positiv;p;0;3;3;6;p;1;0.6234151000007842;002;NSAS99;2019_Dec_05_1419;iat_vr;60.078354189919956;
2;SCHLECHT;negativ;q;0;4;4;1;q;1;0.5127984999999171;002;NSAS99;2019_Dec_05_1419;iat_vr;60.078354189919956;
2;SCHÄDLICH;negativ;q;0;5;5;3;q;1;0.6071522000002005;002;NSAS99;2019_Dec_05_1419;iat_vr;60.078354189919956;
2;AUSGEZEICHNET;positiv;p;0;6;6;5;p;1;0.5739221000003454;002;NSAS99;2019_Dec_05_1419;iat_vr;60.078354189919956;
2;POSITIV;positiv;p;0;7;7;8;p;1;0.5138071000001219;002;NSAS99;2019_Dec_05_1419;iat_vr;60.078354189919956;
2;NEGATIV;negativ;q;0;8;8;2;q;1;0.568164300000717;002;NSAS99;2019_Dec_05_1419;iat_vr;60.078354189919956;
2;SCHWACH;negativ;q;0;9;9;4;q;1;0.7448186999990867;002;NSAS99;2019_Dec_05_1419;iat_vr;60.078354189919956;
2;GUT;positiv;p;1;0;10;9;p;1;0.4661409999989701;002;NSAS99;2019_Dec_05_1419;iat_vr;60.078354189919956;
2;SCHLIMM;negativ;q;1;1;11;0;q;1;0.6145047999998496;002;NSAS99;2019_Dec_05_1419;iat_vr;60.078354189919956;
2;SCHLECHT;negativ;q;1;2;12;1;q;1;0.6805691999998089;002;NSAS99;2019_Dec_05_1419;iat_vr;60.078354189919956;
2;HERVORRAGEND;positiv;p;1;3;13;7;p;1;0.5429512000009709;002;NSAS99;2019_Dec_05_1419;iat_vr;60.078354189919956;
2;EINWANDFREI;positiv;p;1;4;14;6;p;1;0.65153090000058;002;NSAS99;2019_Dec_05_1419;iat_vr;60.078354189919956;
2;AUSGEZEICHNET;positiv;p;1;5;15;5;p;1;0.6068247999992309;002;NSAS99;2019_Dec_05_1419;iat_vr;60.078354189919956;
2;NEGATIV;negativ;q;1;6;16;2;q;1;0.4993956000016624;002;NSAS99;2019_Dec_05_1419;iat_vr;60.078354189919956;
2;POSITIV;positiv;p;1;7;17;8;p;1;0.5795909999997093;002;NSAS99;2019_Dec_05_1419;iat_vr;60.078354189919956;
2;SCHÄDLICH;negativ;q;1;8;18;3;q;1;1.0289620999992621;002;NSAS99;2019_Dec_05_1419;iat_vr;60.078354189919956;
2;SCHWACH;negativ;q;1;9;19;4;q;1;0.5856298999988212;002;NSAS99;2019_Dec_05_1419;iat_vr;60.078354189919956;
;;;;;;;;;;;002;NSAS99;2019_Dec_05_1419;iat_vr;60.078354189919956;
3;KLEIDER;Gemacht;p;0;0;0;17;p;1;0.9760170000008657;002;NSAS99;2019_Dec_05_1419;iat_vr;60.078354189919956;
3;SCHLIMM;negativ;q;0;1;1;0;p;0;0.6472425000010844;002;NSAS99;2019_Dec_05_1419;iat_vr;60.078354189919956;
3;GEBÄUDE;Gemacht;p;0;2;2;15;p;1;0.6673068000000058;002;NSAS99;2019_Dec_05_1419;iat_vr;60.078354189919956;
3;POSITIV;positiv;p;0;3;3;8;p;1;1.1628858000003675;002;NSAS99;2019_Dec_05_1419;iat_vr;60.078354189919956;
3;HERVORRAGEND;positiv;p;0;4;4;7;p;1;0.6169497000009869;002;NSAS99;2019_Dec_05_1419;iat_vr;60.078354189919956;
3;BAUM;Natur;q;0;5;5;10;q;1;0.6650325000009616;002;NSAS99;2019_Dec_05_1419;iat_vr;60.078354189919956;
3;SCHLECHT;negativ;q;0;6;6;1;q;1;0.5778907999992953;002;NSAS99;2019_Dec_05_1419;iat_vr;60.078354189919956;
3;GUT;positiv;p;0;7;7;9;p;1;0.7157477000000654;002;NSAS99;2019_Dec_05_1419;iat_vr;60.078354189919956;
3;SCHÄDLICH;negativ;q;0;8;8;3;q;1;0.710363199999847;002;NSAS99;2019_Dec_05_1419;iat_vr;60.078354189919956;
3;STADT;Gemacht;p;0;9;9;16;p;1;0.8316183000006276;002;NSAS99;2019_Dec_05_1419;iat_vr;60.078354189919956;
3;COMPUTER;Gemacht;p;0;10;10;18;p;1;0.9961305999986507;002;NSAS99;2019_Dec_05_1419;iat_vr;60.078354189919956;
3;SCHWACH;negativ;q;0;11;11;4;q;1;0.6470623999994132;002;NSAS99;2019_Dec_05_1419;iat_vr;60.078354189919956;
3;STEIN;Natur;q;0;12;12;14;q;1;0.6788911000003282;002;NSAS99;2019_Dec_05_1419;iat_vr;60.078354189919956;
3;BLUME;Natur;q;0;13;13;12;q;1;0.5506550999998581;002;NSAS99;2019_Dec_05_1419;iat_vr;60.078354189919956;
3;NEGATIV;negativ;q;0;14;14;2;q;1;0.6803576999991492;002;NSAS99;2019_Dec_05_1419;iat_vr;60.078354189919956;
3;WASSER;Natur;q;0;15;15;11;q;1;0.5784445000008418;002;NSAS99;2019_Dec_05_1419;iat_vr;60.078354189919956;
3;EINWANDFREI;positiv;p;0;16;16;6;p;1;0.6339951000009023;002;NSAS99;2019_Dec_05_1419;iat_vr;60.078354189919956;
3;TIER;Natur;q;0;17;17;13;q;1;0.6819107000010263;002;NSAS99;2019_Dec_05_1419;iat_vr;60.078354189919956;
3;LAMPE;Gemacht;p;0;18;18;19;p;1;0.5813226000009308;002;NSAS99;2019_Dec_05_1419;iat_vr;60.078354189919956;
3;AUSGEZEICHNET;positiv;p;0;19;19;5;p;1;0.6934264000010444;002;NSAS99;2019_Dec_05_1419;iat_vr;60.078354189919956;
;;;;;;;;;;;002;NSAS99;2019_Dec_05_1419;iat_vr;60.078354189919956;
4;POSITIV;positiv;p;0;0;0;8;p;1;0.7541420999987167;002;NSAS99;2019_Dec_05_1419;iat_vr;60.078354189919956;
4;AUSGEZEICHNET;positiv;p;0;1;1;5;p;1;0.6764097000013862;002;NSAS99;2019_Dec_05_1419;iat_vr;60.078354189919956;
4;STADT;Gemacht;p;0;2;2;16;p;1;0.6494337000003725;002;NSAS99;2019_Dec_05_1419;iat_vr;60.078354189919956;
4;NEGATIV;negativ;q;0;3;3;2;q;1;0.6520806999997149;002;NSAS99;2019_Dec_05_1419;iat_vr;60.078354189919956;
4;LAMPE;Gemacht;p;0;4;4;19;p;1;0.8013169999994716;002;NSAS99;2019_Dec_05_1419;iat_vr;60.078354189919956;
4;SCHLECHT;negativ;q;0;5;5;1;q;1;0.6108155000001716;002;NSAS99;2019_Dec_05_1419;iat_vr;60.078354189919956;
4;COMPUTER;Gemacht;p;0;6;6;18;p;1;1.1468171999986225;002;NSAS99;2019_Dec_05_1419;iat_vr;60.078354189919956;
4;TIER;Natur;q;0;7;7;13;q;1;0.6490670000002865;002;NSAS99;2019_Dec_05_1419;iat_vr;60.078354189919956;
4;GUT;positiv;p;0;8;8;9;p;1;0.7140448000009201;002;NSAS99;2019_Dec_05_1419;iat_vr;60.078354189919956;
4;SCHLIMM;negativ;q;0;9;9;0;q;1;0.751250399998753;002;NSAS99;2019_Dec_05_1419;iat_vr;60.078354189919956;
4;BAUM;Natur;q;0;10;10;10;q;1;0.5987143000002106;002;NSAS99;2019_Dec_05_1419;iat_vr;60.078354189919956;
4;GEBÄUDE;Gemacht;p;0;11;11;15;p;1;0.9588808000007703;002;NSAS99;2019_Dec_05_1419;iat_vr;60.078354189919956;
4;EINWANDFREI;positiv;p;0;12;12;6;p;1;0.6354191999998875;002;NSAS99;2019_Dec_05_1419;iat_vr;60.078354189919956;
4;SCHÄDLICH;negativ;q;0;13;13;3;q;1;0.6135677000002033;002;NSAS99;2019_Dec_05_1419;iat_vr;60.078354189919956;
4;HERVORRAGEND;positiv;p;0;14;14;7;p;1;0.9761634999995294;002;NSAS99;2019_Dec_05_1419;iat_vr;60.078354189919956;
4;BLUME;Natur;q;0;15;15;12;q;1;0.8492908999996871;002;NSAS99;2019_Dec_05_1419;iat_vr;60.078354189919956;
4;SCHWACH;negativ;q;0;16;16;4;q;1;0.9482974999991711;002;NSAS99;2019_Dec_05_1419;iat_vr;60.078354189919956;
4;WASSER;Natur;q;0;17;17;11;q;1;0.6292310999997426;002;NSAS99;2019_Dec_05_1419;iat_vr;60.078354189919956;
4;KLEIDER;Gemacht;p;0;18;18;17;p;1;0.6675964000005479;002;NSAS99;2019_Dec_05_1419;iat_vr;60.078354189919956;
4;STEIN;Natur;q;0;19;19;14;q;1;0.6187820000013744;002;NSAS99;2019_Dec_05_1419;iat_vr;60.078354189919956;
4;LAMPE;Gemacht;p;1;0;20;19;p;1;0.681704599999648;002;NSAS99;2019_Dec_05_1419;iat_vr;60.078354189919956;
4;TIER;Natur;q;1;1;21;13;q;1;0.8156097999999474;002;NSAS99;2019_Dec_05_1419;iat_vr;60.078354189919956;
4;BLUME;Natur;q;1;2;22;12;q;1;0.6986916999994719;002;NSAS99;2019_Dec_05_1419;iat_vr;60.078354189919956;
4;GEBÄUDE;Gemacht;p;1;3;23;15;p;1;0.6192465999993146;002;NSAS99;2019_Dec_05_1419;iat_vr;60.078354189919956;
4;HERVORRAGEND;positiv;p;1;4;24;7;p;1;0.629935500001011;002;NSAS99;2019_Dec_05_1419;iat_vr;60.078354189919956;
4;GUT;positiv;p;1;5;25;9;p;1;0.9160036999983276;002;NSAS99;2019_Dec_05_1419;iat_vr;60.078354189919956;
4;NEGATIV;negativ;q;1;6;26;2;q;1;0.5948991999994178;002;NSAS99;2019_Dec_05_1419;iat_vr;60.078354189919956;
4;STEIN;Natur;q;1;7;27;14;q;1;0.6000803999995696;002;NSAS99;2019_Dec_05_1419;iat_vr;60.078354189919956;
4;COMPUTER;Gemacht;p;1;8;28;18;p;1;0.7736165999995137;002;NSAS99;2019_Dec_05_1419;iat_vr;60.078354189919956;
4;STADT;Gemacht;p;1;9;29;16;p;1;0.9477814999991097;002;NSAS99;2019_Dec_05_1419;iat_vr;60.078354189919956;
4;WASSER;Natur;q;1;10;30;11;p;0;0.9975493000001734;002;NSAS99;2019_Dec_05_1419;iat_vr;60.078354189919956;
4;KLEIDER;Gemacht;p;1;11;31;17;p;1;0.7504708000014944;002;NSAS99;2019_Dec_05_1419;iat_vr;60.078354189919956;
4;POSITIV;positiv;p;1;12;32;8;p;1;0.866349199999604;002;NSAS99;2019_Dec_05_1419;iat_vr;60.078354189919956;
4;AUSGEZEICHNET;positiv;p;1;13;33;5;p;1;0.6442265000005136;002;NSAS99;2019_Dec_05_1419;iat_vr;60.078354189919956;
4;SCHWACH;negativ;q;1;14;34;4;q;1;0.551268600000185;002;NSAS99;2019_Dec_05_1419;iat_vr;60.078354189919956;
4;SCHLECHT;negativ;q;1;15;35;1;q;1;0.5476319000008516;002;NSAS99;2019_Dec_05_1419;iat_vr;60.078354189919956;
4;SCHÄDLICH;negativ;q;1;16;36;3;q;1;0.5364535999997315;002;NSAS99;2019_Dec_05_1419;iat_vr;60.078354189919956;
4;BAUM;Natur;q;1;17;37;10;q;1;0.6151073999990331;002;NSAS99;2019_Dec_05_1419;iat_vr;60.078354189919956;
4;EINWANDFREI;positiv;p;1;18;38;6;p;1;1.108577900000455;002;NSAS99;2019_Dec_05_1419;iat_vr;60.078354189919956;
4;SCHLIMM;negativ;q;1;19;39;0;q;1;0.846744000000399;002;NSAS99;2019_Dec_05_1419;iat_vr;60.078354189919956;
;;;;;;;;;;;002;NSAS99;2019_Dec_05_1419;iat_vr;60.078354189919956;
5;LAMPE;Gemacht;q;0;0;0;9;q;1;0.9124601000003167;002;NSAS99;2019_Dec_05_1419;iat_vr;60.078354189919956;
5;KLEIDER;Gemacht;q;0;1;1;7;q;1;0.6473703000010573;002;NSAS99;2019_Dec_05_1419;iat_vr;60.078354189919956;
5;BLUME;Natur;p;0;2;2;2;p;1;0.5147505999993882;002;NSAS99;2019_Dec_05_1419;iat_vr;60.078354189919956;
5;GEBÄUDE;Gemacht;q;0;3;3;5;q;1;0.6465943999992305;002;NSAS99;2019_Dec_05_1419;iat_vr;60.078354189919956;
5;STEIN;Natur;p;0;4;4;4;p;1;0.5634406999997736;002;NSAS99;2019_Dec_05_1419;iat_vr;60.078354189919956;
5;COMPUTER;Gemacht;q;0;5;5;8;q;1;0.6952879000000394;002;NSAS99;2019_Dec_05_1419;iat_vr;60.078354189919956;
5;STADT;Gemacht;q;0;6;6;6;q;1;0.581139500000063;002;NSAS99;2019_Dec_05_1419;iat_vr;60.078354189919956;
5;BAUM;Natur;p;0;7;7;0;p;1;0.6296452000005957;002;NSAS99;2019_Dec_05_1419;iat_vr;60.078354189919956;
5;WASSER;Natur;p;0;8;8;1;p;1;0.5457476999999926;002;NSAS99;2019_Dec_05_1419;iat_vr;60.078354189919956;
5;TIER;Natur;p;0;9;9;3;p;1;0.5513733999996475;002;NSAS99;2019_Dec_05_1419;iat_vr;60.078354189919956;
5;GEBÄUDE;Gemacht;q;1;0;10;5;q;1;0.5162426000006235;002;NSAS99;2019_Dec_05_1419;iat_vr;60.078354189919956;
5;BAUM;Natur;p;1;1;11;0;p;1;0.5682720000004338;002;NSAS99;2019_Dec_05_1419;iat_vr;60.078354189919956;
5;STADT;Gemacht;q;1;2;12;6;q;1;0.7810162999994645;002;NSAS99;2019_Dec_05_1419;iat_vr;60.078354189919956;
5;BLUME;Natur;p;1;3;13;2;p;1;0.512512199999037;002;NSAS99;2019_Dec_05_1419;iat_vr;60.078354189919956;
5;WASSER;Natur;p;1;4;14;1;p;1;0.5590770999988308;002;NSAS99;2019_Dec_05_1419;iat_vr;60.078354189919956;
5;STEIN;Natur;p;1;5;15;4;p;1;0.5977932999994664;002;NSAS99;2019_Dec_05_1419;iat_vr;60.078354189919956;
5;KLEIDER;Gemacht;q;1;6;16;7;q;1;0.5430364999992889;002;NSAS99;2019_Dec_05_1419;iat_vr;60.078354189919956;
5;COMPUTER;Gemacht;q;1;7;17;8;q;1;0.8142762000006769;002;NSAS99;2019_Dec_05_1419;iat_vr;60.078354189919956;
5;TIER;Natur;p;1;8;18;3;p;1;0.5183654000011302;002;NSAS99;2019_Dec_05_1419;iat_vr;60.078354189919956;
5;LAMPE;Gemacht;q;1;9;19;9;q;1;0.5648205000015878;002;NSAS99;2019_Dec_05_1419;iat_vr;60.078354189919956;
;;;;;;;;;;;002;NSAS99;2019_Dec_05_1419;iat_vr;60.078354189919956;
6;STEIN;Natur;p;0;0;0;4;p;1;0.8395828000011534;002;NSAS99;2019_Dec_05_1419;iat_vr;60.078354189919956;
6;STADT;Gemacht;q;0;1;1;6;q;1;0.6600888000011764;002;NSAS99;2019_Dec_05_1419;iat_vr;60.078354189919956;
6;KLEIDER;Gemacht;q;0;2;2;7;q;1;0.5839026000012382;002;NSAS99;2019_Dec_05_1419;iat_vr;60.078354189919956;
6;SCHLIMM;negativ;q;0;3;3;10;p;0;0.6793997999993735;002;NSAS99;2019_Dec_05_1419;iat_vr;60.078354189919956;
6;GUT;positiv;p;0;4;4;19;p;1;0.9648462000004656;002;NSAS99;2019_Dec_05_1419;iat_vr;60.078354189919956;
6;GEBÄUDE;Gemacht;q;0;5;5;5;q;1;0.6829969999998866;002;NSAS99;2019_Dec_05_1419;iat_vr;60.078354189919956;
6;BAUM;Natur;p;0;6;6;0;p;1;0.6827080999992177;002;NSAS99;2019_Dec_05_1419;iat_vr;60.078354189919956;
6;BLUME;Natur;p;0;7;7;2;p;1;0.7818942999983847;002;NSAS99;2019_Dec_05_1419;iat_vr;60.078354189919956;
6;TIER;Natur;p;0;8;8;3;p;1;0.482248599999366;002;NSAS99;2019_Dec_05_1419;iat_vr;60.078354189919956;
6;SCHWACH;negativ;q;0;9;9;14;q;1;0.6958036000014545;002;NSAS99;2019_Dec_05_1419;iat_vr;60.078354189919956;
6;WASSER;Natur;p;0;10;10;1;p;1;0.6151007999997091;002;NSAS99;2019_Dec_05_1419;iat_vr;60.078354189919956;
6;AUSGEZEICHNET;positiv;p;0;11;11;15;q;0;0.6620542000000569;002;NSAS99;2019_Dec_05_1419;iat_vr;60.078354189919956;
6;POSITIV;positiv;p;0;12;12;18;p;1;1.252375199999733;002;NSAS99;2019_Dec_05_1419;iat_vr;60.078354189919956;
6;SCHÄDLICH;negativ;q;0;13;13;13;q;1;1.0472324999991542;002;NSAS99;2019_Dec_05_1419;iat_vr;60.078354189919956;
6;SCHLECHT;negativ;q;0;14;14;11;q;1;0.7112238999998226;002;NSAS99;2019_Dec_05_1419;iat_vr;60.078354189919956;
6;NEGATIV;negativ;q;0;15;15;12;q;1;0.7366621000001032;002;NSAS99;2019_Dec_05_1419;iat_vr;60.078354189919956;
6;HERVORRAGEND;positiv;p;0;16;16;17;p;1;0.5332359000003635;002;NSAS99;2019_Dec_05_1419;iat_vr;60.078354189919956;
6;LAMPE;Gemacht;q;0;17;17;9;q;1;0.6800833999986935;002;NSAS99;2019_Dec_05_1419;iat_vr;60.078354189919956;
6;COMPUTER;Gemacht;q;0;18;18;8;q;1;0.5815944000005402;002;NSAS99;2019_Dec_05_1419;iat_vr;60.078354189919956;
6;EINWANDFREI;positiv;p;0;19;19;16;p;1;0.6676356999996642;002;NSAS99;2019_Dec_05_1419;iat_vr;60.078354189919956;
;;;;;;;;;;;002;NSAS99;2019_Dec_05_1419;iat_vr;60.078354189919956;
7;LAMPE;Gemacht;q;0;0;0;9;q;1;0.7037129000000277;002;NSAS99;2019_Dec_05_1419;iat_vr;60.078354189919956;
7;HERVORRAGEND;positiv;p;0;1;1;17;p;1;0.5606446000001597;002;NSAS99;2019_Dec_05_1419;iat_vr;60.078354189919956;
7;SCHLIMM;negativ;q;0;2;2;10;q;1;0.6138714999997319;002;NSAS99;2019_Dec_05_1419;iat_vr;60.078354189919956;
7;TIER;Natur;p;0;3;3;3;p;1;0.5484096000000136;002;NSAS99;2019_Dec_05_1419;iat_vr;60.078354189919956;
7;BAUM;Natur;p;0;4;4;0;p;1;0.5155600999987655;002;NSAS99;2019_Dec_05_1419;iat_vr;60.078354189919956;
7;WASSER;Natur;p;0;5;5;1;p;1;0.5144017999991775;002;NSAS99;2019_Dec_05_1419;iat_vr;60.078354189919956;
7;SCHWACH;negativ;q;0;6;6;14;q;1;0.5023433000005753;002;NSAS99;2019_Dec_05_1419;iat_vr;60.078354189919956;
7;SCHLECHT;negativ;q;0;7;7;11;q;1;0.6460580000002665;002;NSAS99;2019_Dec_05_1419;iat_vr;60.078354189919956;
7;KLEIDER;Gemacht;q;0;8;8;7;q;1;0.5967086000000563;002;NSAS99;2019_Dec_05_1419;iat_vr;60.078354189919956;
7;EINWANDFREI;positiv;p;0;9;9;16;p;1;0.5662401000008686;002;NSAS99;2019_Dec_05_1419;iat_vr;60.078354189919956;
7;AUSGEZEICHNET;positiv;p;0;10;10;15;p;1;0.5095734999995329;002;NSAS99;2019_Dec_05_1419;iat_vr;60.078354189919956;
7;COMPUTER;Gemacht;q;0;11;11;8;q;1;0.6519533000009687;002;NSAS99;2019_Dec_05_1419;iat_vr;60.078354189919956;
7;STEIN;Natur;p;0;12;12;4;p;1;0.7357269000003726;002;NSAS99;2019_Dec_05_1419;iat_vr;60.078354189919956;
7;GEBÄUDE;Gemacht;q;0;13;13;5;q;1;1.080201799999486;002;NSAS99;2019_Dec_05_1419;iat_vr;60.078354189919956;
7;POSITIV;positiv;p;0;14;14;18;p;1;0.6856404999998631;002;NSAS99;2019_Dec_05_1419;iat_vr;60.078354189919956;
7;BLUME;Natur;p;0;15;15;2;p;1;0.49828359999992244;002;NSAS99;2019_Dec_05_1419;iat_vr;60.078354189919956;
7;GUT;positiv;p;0;16;16;19;p;1;0.5663967999989836;002;NSAS99;2019_Dec_05_1419;iat_vr;60.078354189919956;
7;SCHÄDLICH;negativ;q;0;17;17;13;q;1;0.6171259999991889;002;NSAS99;2019_Dec_05_1419;iat_vr;60.078354189919956;
7;NEGATIV;negativ;q;0;18;18;12;q;1;0.6313730999991094;002;NSAS99;2019_Dec_05_1419;iat_vr;60.078354189919956;
7;STADT;Gemacht;q;0;19;19;6;q;1;0.648193099999844;002;NSAS99;2019_Dec_05_1419;iat_vr;60.078354189919956;
7;HERVORRAGEND;positiv;p;1;0;20;17;p;1;0.5059763999997813;002;NSAS99;2019_Dec_05_1419;iat_vr;60.078354189919956;
7;KLEIDER;Gemacht;q;1;1;21;7;q;1;0.7624049000005471;002;NSAS99;2019_Dec_05_1419;iat_vr;60.078354189919956;
7;GEBÄUDE;Gemacht;q;1;2;22;5;q;1;0.4958581000009872;002;NSAS99;2019_Dec_05_1419;iat_vr;60.078354189919956;
7;COMPUTER;Gemacht;q;1;3;23;8;q;1;0.5133366000009119;002;NSAS99;2019_Dec_05_1419;iat_vr;60.078354189919956;
7;BAUM;Natur;p;1;4;24;0;p;1;0.5357702000001154;002;NSAS99;2019_Dec_05_1419;iat_vr;60.078354189919956;
7;AUSGEZEICHNET;positiv;p;1;5;25;15;p;1;0.49057619999985036;002;NSAS99;2019_Dec_05_1419;iat_vr;60.078354189919956;
7;LAMPE;Gemacht;q;1;6;26;9;q;1;0.53190320000067;002;NSAS99;2019_Dec_05_1419;iat_vr;60.078354189919956;
7;BLUME;Natur;p;1;7;27;2;p;1;0.7311112999996112;002;NSAS99;2019_Dec_05_1419;iat_vr;60.078354189919956;
7;TIER;Natur;p;1;8;28;3;p;1;0.5789158999996289;002;NSAS99;2019_Dec_05_1419;iat_vr;60.078354189919956;
7;POSITIV;positiv;p;1;9;29;18;p;1;0.49695880000035686;002;NSAS99;2019_Dec_05_1419;iat_vr;60.078354189919956;
7;WASSER;Natur;p;1;10;30;1;p;1;0.5354036999997334;002;NSAS99;2019_Dec_05_1419;iat_vr;60.078354189919956;
7;SCHWACH;negativ;q;1;11;31;14;q;1;0.5312269000005472;002;NSAS99;2019_Dec_05_1419;iat_vr;60.078354189919956;
7;NEGATIV;negativ;q;1;12;32;12;q;1;0.9454210000003513;002;NSAS99;2019_Dec_05_1419;iat_vr;60.078354189919956;
7;GUT;positiv;p;1;13;33;19;p;1;0.5159390999997413;002;NSAS99;2019_Dec_05_1419;iat_vr;60.078354189919956;
7;SCHLIMM;negativ;q;1;14;34;10;p;0;0.5463726999987557;002;NSAS99;2019_Dec_05_1419;iat_vr;60.078354189919956;
7;SCHÄDLICH;negativ;q;1;15;35;13;q;1;0.6787994999995135;002;NSAS99;2019_Dec_05_1419;iat_vr;60.078354189919956;
7;STADT;Gemacht;q;1;16;36;6;q;1;0.528623799998968;002;NSAS99;2019_Dec_05_1419;iat_vr;60.078354189919956;
7;STEIN;Natur;p;1;17;37;4;p;1;0.5646972000013193;002;NSAS99;2019_Dec_05_1419;iat_vr;60.078354189919956;
7;SCHLECHT;negativ;q;1;18;38;11;q;1;0.6461825000005774;002;NSAS99;2019_Dec_05_1419;iat_vr;60.078354189919956;
7;EINWANDFREI;positiv;p;1;19;39;16;p;1;0.5759345000005851;002;NSAS99;2019_Dec_05_1419;iat_vr;60.078354189919956;
;;;;;;;;;;;002;NSAS99;2019_Dec_05_1419;iat_vr;60.078354189919956;
