Block;Word;Category;CorrResp;trials.thisRepN;trials.thisTrialN;trials.thisN;trials.thisIndex;key_resp_2.keys;key_resp_2.corr;key_resp_2.rt;session;participant;date;expName;frameRate;
1;BAUM;Natur;q;0;0;0;0;q;1;1.5870637999996688;002;NSDS65;2019_Dec_05_1212;iat_vr;59.982641023855635;
1;WASSER;Natur;q;0;1;1;1;q;1;0.7164299000005485;002;NSDS65;2019_Dec_05_1212;iat_vr;59.982641023855635;
1;STADT;Gemacht;p;0;2;2;6;p;1;0.6443753000003198;002;NSDS65;2019_Dec_05_1212;iat_vr;59.982641023855635;
1;LAMPE;Gemacht;p;0;3;3;9;p;1;1.0598845000004076;002;NSDS65;2019_Dec_05_1212;iat_vr;59.982641023855635;
1;BLUME;Natur;q;0;4;4;2;q;1;0.6799940000000788;002;NSDS65;2019_Dec_05_1212;iat_vr;59.982641023855635;
1;COMPUTER;Gemacht;p;0;5;5;8;p;1;0.9226776000004975;002;NSDS65;2019_Dec_05_1212;iat_vr;59.982641023855635;
1;KLEIDER;Gemacht;p;0;6;6;7;p;1;0.8916819999994914;002;NSDS65;2019_Dec_05_1212;iat_vr;59.982641023855635;
1;STEIN;Natur;q;0;7;7;4;q;1;0.7093224999998711;002;NSDS65;2019_Dec_05_1212;iat_vr;59.982641023855635;
1;TIER;Natur;q;0;8;8;3;q;1;0.6986497000007148;002;NSDS65;2019_Dec_05_1212;iat_vr;59.982641023855635;
1;GEBÄUDE;Gemacht;p;0;9;9;5;p;1;0.6244924000002356;002;NSDS65;2019_Dec_05_1212;iat_vr;59.982641023855635;
1;BLUME;Natur;q;1;0;10;2;q;1;1.1003256000003603;002;NSDS65;2019_Dec_05_1212;iat_vr;59.982641023855635;
1;STADT;Gemacht;p;1;1;11;6;p;1;0.7821696999999403;002;NSDS65;2019_Dec_05_1212;iat_vr;59.982641023855635;
1;COMPUTER;Gemacht;p;1;2;12;8;p;1;0.7351072000001295;002;NSDS65;2019_Dec_05_1212;iat_vr;59.982641023855635;
1;KLEIDER;Gemacht;p;1;3;13;7;p;1;0.5971050999996805;002;NSDS65;2019_Dec_05_1212;iat_vr;59.982641023855635;
1;BAUM;Natur;q;1;4;14;0;q;1;0.8347884999993767;002;NSDS65;2019_Dec_05_1212;iat_vr;59.982641023855635;
1;WASSER;Natur;q;1;5;15;1;q;1;0.7140602999998009;002;NSDS65;2019_Dec_05_1212;iat_vr;59.982641023855635;
1;LAMPE;Gemacht;p;1;6;16;9;p;1;0.6188386000003447;002;NSDS65;2019_Dec_05_1212;iat_vr;59.982641023855635;
1;TIER;Natur;q;1;7;17;3;q;1;0.7190842999998495;002;NSDS65;2019_Dec_05_1212;iat_vr;59.982641023855635;
1;STEIN;Natur;q;1;8;18;4;p;0;1.233058699999674;002;NSDS65;2019_Dec_05_1212;iat_vr;59.982641023855635;
1;GEBÄUDE;Gemacht;p;1;9;19;5;p;1;0.9813284000001659;002;NSDS65;2019_Dec_05_1212;iat_vr;59.982641023855635;
;;;;;;;;;;;002;NSDS65;2019_Dec_05_1212;iat_vr;59.982641023855635;
2;POSITIV;positiv;p;0;0;0;8;p;1;1.1438605000003008;002;NSDS65;2019_Dec_05_1212;iat_vr;59.982641023855635;
2;SCHLIMM;negativ;q;0;1;1;0;q;1;0.9796901999998227;002;NSDS65;2019_Dec_05_1212;iat_vr;59.982641023855635;
2;AUSGEZEICHNET;positiv;p;0;2;2;5;p;1;0.7233023999997386;002;NSDS65;2019_Dec_05_1212;iat_vr;59.982641023855635;
2;SCHLECHT;negativ;q;0;3;3;1;q;1;0.6287296000000424;002;NSDS65;2019_Dec_05_1212;iat_vr;59.982641023855635;
2;SCHWACH;negativ;q;0;4;4;4;q;1;0.7020834999993895;002;NSDS65;2019_Dec_05_1212;iat_vr;59.982641023855635;
2;HERVORRAGEND;positiv;p;0;5;5;7;p;1;0.7093917000001966;002;NSDS65;2019_Dec_05_1212;iat_vr;59.982641023855635;
2;GUT;positiv;p;0;6;6;9;p;1;0.9482938000001013;002;NSDS65;2019_Dec_05_1212;iat_vr;59.982641023855635;
2;EINWANDFREI;positiv;p;0;7;7;6;p;1;0.6111255999994682;002;NSDS65;2019_Dec_05_1212;iat_vr;59.982641023855635;
2;NEGATIV;negativ;q;0;8;8;2;q;1;0.6018819999999323;002;NSDS65;2019_Dec_05_1212;iat_vr;59.982641023855635;
2;SCHÄDLICH;negativ;q;0;9;9;3;q;1;0.6791546000004018;002;NSDS65;2019_Dec_05_1212;iat_vr;59.982641023855635;
2;NEGATIV;negativ;q;1;0;10;2;q;1;0.7856226000003517;002;NSDS65;2019_Dec_05_1212;iat_vr;59.982641023855635;
2;SCHLECHT;negativ;q;1;1;11;1;q;1;0.7133060999994996;002;NSDS65;2019_Dec_05_1212;iat_vr;59.982641023855635;
2;SCHWACH;negativ;q;1;2;12;4;q;1;0.7831079999996291;002;NSDS65;2019_Dec_05_1212;iat_vr;59.982641023855635;
2;HERVORRAGEND;positiv;p;1;3;13;7;p;1;0.6019603999993706;002;NSDS65;2019_Dec_05_1212;iat_vr;59.982641023855635;
2;SCHÄDLICH;negativ;q;1;4;14;3;q;1;0.88079099999959;002;NSDS65;2019_Dec_05_1212;iat_vr;59.982641023855635;
2;AUSGEZEICHNET;positiv;p;1;5;15;5;p;1;0.9290258999999423;002;NSDS65;2019_Dec_05_1212;iat_vr;59.982641023855635;
2;EINWANDFREI;positiv;p;1;6;16;6;p;1;0.727608300000611;002;NSDS65;2019_Dec_05_1212;iat_vr;59.982641023855635;
2;POSITIV;positiv;p;1;7;17;8;p;1;0.5787363999997979;002;NSDS65;2019_Dec_05_1212;iat_vr;59.982641023855635;
2;GUT;positiv;p;1;8;18;9;p;1;0.6327805000000808;002;NSDS65;2019_Dec_05_1212;iat_vr;59.982641023855635;
2;SCHLIMM;negativ;q;1;9;19;0;q;1;0.6477521999995588;002;NSDS65;2019_Dec_05_1212;iat_vr;59.982641023855635;
;;;;;;;;;;;002;NSDS65;2019_Dec_05_1212;iat_vr;59.982641023855635;
3;STEIN;Natur;q;0;0;0;14;q;1;2.2781601999995473;002;NSDS65;2019_Dec_05_1212;iat_vr;59.982641023855635;
3;HERVORRAGEND;positiv;p;0;1;1;7;p;1;0.9180587999999261;002;NSDS65;2019_Dec_05_1212;iat_vr;59.982641023855635;
3;STADT;Gemacht;p;0;2;2;16;p;1;1.3145186000001559;002;NSDS65;2019_Dec_05_1212;iat_vr;59.982641023855635;
3;SCHWACH;negativ;q;0;3;3;4;q;1;0.7967516999997315;002;NSDS65;2019_Dec_05_1212;iat_vr;59.982641023855635;
3;TIER;Natur;q;0;4;4;13;q;1;0.8022517999997945;002;NSDS65;2019_Dec_05_1212;iat_vr;59.982641023855635;
3;SCHÄDLICH;negativ;q;0;5;5;3;q;1;0.9784490000001824;002;NSDS65;2019_Dec_05_1212;iat_vr;59.982641023855635;
3;EINWANDFREI;positiv;p;0;6;6;6;p;1;0.8022454000001744;002;NSDS65;2019_Dec_05_1212;iat_vr;59.982641023855635;
3;GUT;positiv;p;0;7;7;9;p;1;0.6985621000003448;002;NSDS65;2019_Dec_05_1212;iat_vr;59.982641023855635;
3;KLEIDER;Gemacht;p;0;8;8;17;p;1;0.7301466000008077;002;NSDS65;2019_Dec_05_1212;iat_vr;59.982641023855635;
3;BLUME;Natur;q;0;9;9;12;q;1;1.3019948999999542;002;NSDS65;2019_Dec_05_1212;iat_vr;59.982641023855635;
3;SCHLIMM;negativ;q;0;10;10;0;q;1;0.9519619000002422;002;NSDS65;2019_Dec_05_1212;iat_vr;59.982641023855635;
3;GEBÄUDE;Gemacht;p;0;11;11;15;p;1;0.7472687999998016;002;NSDS65;2019_Dec_05_1212;iat_vr;59.982641023855635;
3;COMPUTER;Gemacht;p;0;12;12;18;p;1;1.1297340000000986;002;NSDS65;2019_Dec_05_1212;iat_vr;59.982641023855635;
3;POSITIV;positiv;p;0;13;13;8;p;1;0.8138008999994781;002;NSDS65;2019_Dec_05_1212;iat_vr;59.982641023855635;
3;NEGATIV;negativ;q;0;14;14;2;q;1;0.6801507000000129;002;NSDS65;2019_Dec_05_1212;iat_vr;59.982641023855635;
3;AUSGEZEICHNET;positiv;p;0;15;15;5;p;1;0.7604123999999501;002;NSDS65;2019_Dec_05_1212;iat_vr;59.982641023855635;
3;WASSER;Natur;q;0;16;16;11;q;1;1.147282100000666;002;NSDS65;2019_Dec_05_1212;iat_vr;59.982641023855635;
3;SCHLECHT;negativ;q;0;17;17;1;q;1;0.7295536999999968;002;NSDS65;2019_Dec_05_1212;iat_vr;59.982641023855635;
3;LAMPE;Gemacht;p;0;18;18;19;p;1;0.7293976000000839;002;NSDS65;2019_Dec_05_1212;iat_vr;59.982641023855635;
3;BAUM;Natur;q;0;19;19;10;q;1;1.1843939000000319;002;NSDS65;2019_Dec_05_1212;iat_vr;59.982641023855635;
;;;;;;;;;;;002;NSDS65;2019_Dec_05_1212;iat_vr;59.982641023855635;
4;TIER;Natur;q;0;0;0;13;q;1;1.2961694999994506;002;NSDS65;2019_Dec_05_1212;iat_vr;59.982641023855635;
4;SCHLECHT;negativ;q;0;1;1;1;q;1;1.050682300000517;002;NSDS65;2019_Dec_05_1212;iat_vr;59.982641023855635;
4;STEIN;Natur;q;0;2;2;14;q;1;0.8664938000001712;002;NSDS65;2019_Dec_05_1212;iat_vr;59.982641023855635;
4;NEGATIV;negativ;q;0;3;3;2;q;1;0.8132671000003029;002;NSDS65;2019_Dec_05_1212;iat_vr;59.982641023855635;
4;AUSGEZEICHNET;positiv;p;0;4;4;5;p;1;0.8516800999996121;002;NSDS65;2019_Dec_05_1212;iat_vr;59.982641023855635;
4;SCHÄDLICH;negativ;q;0;5;5;3;q;1;1.0766040000007706;002;NSDS65;2019_Dec_05_1212;iat_vr;59.982641023855635;
4;SCHLIMM;negativ;q;0;6;6;0;q;1;0.9345832000008159;002;NSDS65;2019_Dec_05_1212;iat_vr;59.982641023855635;
4;POSITIV;positiv;p;0;7;7;8;p;1;0.783101799999713;002;NSDS65;2019_Dec_05_1212;iat_vr;59.982641023855635;
4;KLEIDER;Gemacht;p;0;8;8;17;p;1;0.6341033999997308;002;NSDS65;2019_Dec_05_1212;iat_vr;59.982641023855635;
4;GEBÄUDE;Gemacht;p;0;9;9;15;p;1;0.6698106000003463;002;NSDS65;2019_Dec_05_1212;iat_vr;59.982641023855635;
4;EINWANDFREI;positiv;p;0;10;10;6;p;1;0.8611692999993465;002;NSDS65;2019_Dec_05_1212;iat_vr;59.982641023855635;
4;GUT;positiv;p;0;11;11;9;p;1;0.7484768999993321;002;NSDS65;2019_Dec_05_1212;iat_vr;59.982641023855635;
4;BLUME;Natur;q;0;12;12;12;q;1;0.895453200000702;002;NSDS65;2019_Dec_05_1212;iat_vr;59.982641023855635;
4;STADT;Gemacht;p;0;13;13;16;p;1;0.7673941000002742;002;NSDS65;2019_Dec_05_1212;iat_vr;59.982641023855635;
4;COMPUTER;Gemacht;p;0;14;14;18;p;1;0.8022857000005388;002;NSDS65;2019_Dec_05_1212;iat_vr;59.982641023855635;
4;BAUM;Natur;q;0;15;15;10;q;1;0.7484578000003239;002;NSDS65;2019_Dec_05_1212;iat_vr;59.982641023855635;
4;LAMPE;Gemacht;p;0;16;16;19;p;1;1.7317993000006027;002;NSDS65;2019_Dec_05_1212;iat_vr;59.982641023855635;
4;HERVORRAGEND;positiv;p;0;17;17;7;p;1;0.9121063000002323;002;NSDS65;2019_Dec_05_1212;iat_vr;59.982641023855635;
4;WASSER;Natur;q;0;18;18;11;q;1;0.8145127000007051;002;NSDS65;2019_Dec_05_1212;iat_vr;59.982641023855635;
4;SCHWACH;negativ;q;0;19;19;4;q;1;0.9477799999995113;002;NSDS65;2019_Dec_05_1212;iat_vr;59.982641023855635;
4;STEIN;Natur;q;1;0;20;14;q;1;0.7492015999996511;002;NSDS65;2019_Dec_05_1212;iat_vr;59.982641023855635;
4;GEBÄUDE;Gemacht;p;1;1;21;15;p;1;0.7479819000000134;002;NSDS65;2019_Dec_05_1212;iat_vr;59.982641023855635;
4;POSITIV;positiv;p;1;2;22;8;p;1;0.9018378999999186;002;NSDS65;2019_Dec_05_1212;iat_vr;59.982641023855635;
4;AUSGEZEICHNET;positiv;p;1;3;23;5;p;1;0.6715944000006857;002;NSDS65;2019_Dec_05_1212;iat_vr;59.982641023855635;
4;EINWANDFREI;positiv;p;1;4;24;6;p;1;0.8791724000002432;002;NSDS65;2019_Dec_05_1212;iat_vr;59.982641023855635;
4;SCHLECHT;negativ;q;1;5;25;1;q;1;1.0971362000000227;002;NSDS65;2019_Dec_05_1212;iat_vr;59.982641023855635;
4;WASSER;Natur;q;1;6;26;11;q;1;0.7655700999994224;002;NSDS65;2019_Dec_05_1212;iat_vr;59.982641023855635;
4;SCHÄDLICH;negativ;q;1;7;27;3;q;1;0.9139413000002605;002;NSDS65;2019_Dec_05_1212;iat_vr;59.982641023855635;
4;HERVORRAGEND;positiv;p;1;8;28;7;p;1;0.6935536999999385;002;NSDS65;2019_Dec_05_1212;iat_vr;59.982641023855635;
4;KLEIDER;Gemacht;p;1;9;29;17;p;1;1.9487084000002142;002;NSDS65;2019_Dec_05_1212;iat_vr;59.982641023855635;
4;LAMPE;Gemacht;p;1;10;30;19;p;1;0.629141399999753;002;NSDS65;2019_Dec_05_1212;iat_vr;59.982641023855635;
4;SCHLIMM;negativ;q;1;11;31;0;q;1;0.8984671999996863;002;NSDS65;2019_Dec_05_1212;iat_vr;59.982641023855635;
4;BLUME;Natur;q;1;12;32;12;q;1;0.7833571999999549;002;NSDS65;2019_Dec_05_1212;iat_vr;59.982641023855635;
4;NEGATIV;negativ;q;1;13;33;2;q;1;0.7297351999995954;002;NSDS65;2019_Dec_05_1212;iat_vr;59.982641023855635;
4;STADT;Gemacht;p;1;14;34;16;p;1;0.7975181000001612;002;NSDS65;2019_Dec_05_1212;iat_vr;59.982641023855635;
4;GUT;positiv;p;1;15;35;9;p;1;0.7686108999996577;002;NSDS65;2019_Dec_05_1212;iat_vr;59.982641023855635;
4;SCHWACH;negativ;q;1;16;36;4;q;1;1.0620208000000275;002;NSDS65;2019_Dec_05_1212;iat_vr;59.982641023855635;
4;COMPUTER;Gemacht;p;1;17;37;18;p;1;1.2813879000004817;002;NSDS65;2019_Dec_05_1212;iat_vr;59.982641023855635;
4;TIER;Natur;q;1;18;38;13;q;1;1.0002610000001368;002;NSDS65;2019_Dec_05_1212;iat_vr;59.982641023855635;
4;BAUM;Natur;q;1;19;39;10;q;1;1.0025357000004078;002;NSDS65;2019_Dec_05_1212;iat_vr;59.982641023855635;
;;;;;;;;;;;002;NSDS65;2019_Dec_05_1212;iat_vr;59.982641023855635;
5;LAMPE;Gemacht;q;0;0;0;9;q;1;2.4593316000000414;002;NSDS65;2019_Dec_05_1212;iat_vr;59.982641023855635;
5;BAUM;Natur;p;0;1;1;0;p;1;0.8331147999997484;002;NSDS65;2019_Dec_05_1212;iat_vr;59.982641023855635;
5;GEBÄUDE;Gemacht;q;0;2;2;5;q;1;1.218883100000312;002;NSDS65;2019_Dec_05_1212;iat_vr;59.982641023855635;
5;BLUME;Natur;p;0;3;3;2;p;1;0.7132788999997501;002;NSDS65;2019_Dec_05_1212;iat_vr;59.982641023855635;
5;WASSER;Natur;p;0;4;4;1;p;1;1.7354798999995182;002;NSDS65;2019_Dec_05_1212;iat_vr;59.982641023855635;
5;COMPUTER;Gemacht;q;0;5;5;8;q;1;0.7521053000000393;002;NSDS65;2019_Dec_05_1212;iat_vr;59.982641023855635;
5;TIER;Natur;p;0;6;6;3;p;1;0.7323597000004156;002;NSDS65;2019_Dec_05_1212;iat_vr;59.982641023855635;
5;STEIN;Natur;p;0;7;7;4;p;1;1.331945099999757;002;NSDS65;2019_Dec_05_1212;iat_vr;59.982641023855635;
5;KLEIDER;Gemacht;q;0;8;8;7;q;1;0.7671946000000389;002;NSDS65;2019_Dec_05_1212;iat_vr;59.982641023855635;
5;STADT;Gemacht;q;0;9;9;6;q;1;1.4651966000001266;002;NSDS65;2019_Dec_05_1212;iat_vr;59.982641023855635;
5;GEBÄUDE;Gemacht;q;1;0;10;5;q;1;0.6295127000003049;002;NSDS65;2019_Dec_05_1212;iat_vr;59.982641023855635;
5;STADT;Gemacht;q;1;1;11;6;q;1;0.6959194000000934;002;NSDS65;2019_Dec_05_1212;iat_vr;59.982641023855635;
5;KLEIDER;Gemacht;q;1;2;12;7;q;1;0.6972186000002694;002;NSDS65;2019_Dec_05_1212;iat_vr;59.982641023855635;
5;COMPUTER;Gemacht;q;1;3;13;8;q;1;0.7643524000004618;002;NSDS65;2019_Dec_05_1212;iat_vr;59.982641023855635;
5;LAMPE;Gemacht;q;1;4;14;9;q;1;0.6981556999999157;002;NSDS65;2019_Dec_05_1212;iat_vr;59.982641023855635;
5;TIER;Natur;p;1;5;15;3;p;1;0.6990477999997893;002;NSDS65;2019_Dec_05_1212;iat_vr;59.982641023855635;
5;BAUM;Natur;p;1;6;16;0;p;1;0.717586200000369;002;NSDS65;2019_Dec_05_1212;iat_vr;59.982641023855635;
5;WASSER;Natur;p;1;7;17;1;p;1;0.6304313000000548;002;NSDS65;2019_Dec_05_1212;iat_vr;59.982641023855635;
5;STEIN;Natur;p;1;8;18;4;q;0;1.000529899999492;002;NSDS65;2019_Dec_05_1212;iat_vr;59.982641023855635;
5;BLUME;Natur;p;1;9;19;2;q;0;1.7449910999994245;002;NSDS65;2019_Dec_05_1212;iat_vr;59.982641023855635;
;;;;;;;;;;;002;NSDS65;2019_Dec_05_1212;iat_vr;59.982641023855635;
6;STEIN;Natur;p;0;0;0;4;p;1;2.1519795000003796;002;NSDS65;2019_Dec_05_1212;iat_vr;59.982641023855635;
6;KLEIDER;Gemacht;q;0;1;1;7;q;1;1.2342228000006799;002;NSDS65;2019_Dec_05_1212;iat_vr;59.982641023855635;
6;GEBÄUDE;Gemacht;q;0;2;2;5;q;1;1.2504824999996345;002;NSDS65;2019_Dec_05_1212;iat_vr;59.982641023855635;
6;SCHWACH;negativ;q;0;3;3;14;q;1;0.9637422000005245;002;NSDS65;2019_Dec_05_1212;iat_vr;59.982641023855635;
6;EINWANDFREI;positiv;p;0;4;4;16;p;1;1.0626391999994667;002;NSDS65;2019_Dec_05_1212;iat_vr;59.982641023855635;
6;BAUM;Natur;p;0;5;5;0;q;0;1.0985580999995364;002;NSDS65;2019_Dec_05_1212;iat_vr;59.982641023855635;
6;GUT;positiv;p;0;6;6;19;p;1;1.3672616999992897;002;NSDS65;2019_Dec_05_1212;iat_vr;59.982641023855635;
6;BLUME;Natur;p;0;7;7;2;p;1;0.8145531000000119;002;NSDS65;2019_Dec_05_1212;iat_vr;59.982641023855635;
6;TIER;Natur;p;0;8;8;3;p;1;0.8327134000001024;002;NSDS65;2019_Dec_05_1212;iat_vr;59.982641023855635;
6;COMPUTER;Gemacht;q;0;9;9;8;q;1;0.8617691999997987;002;NSDS65;2019_Dec_05_1212;iat_vr;59.982641023855635;
6;HERVORRAGEND;positiv;p;0;10;10;17;p;1;1.4128921999999875;002;NSDS65;2019_Dec_05_1212;iat_vr;59.982641023855635;
6;SCHLIMM;negativ;q;0;11;11;10;q;1;0.7979657999994743;002;NSDS65;2019_Dec_05_1212;iat_vr;59.982641023855635;
6;NEGATIV;negativ;q;0;12;12;12;q;1;0.8470459000000119;002;NSDS65;2019_Dec_05_1212;iat_vr;59.982641023855635;
6;POSITIV;positiv;p;0;13;13;18;p;1;0.7484559000004083;002;NSDS65;2019_Dec_05_1212;iat_vr;59.982641023855635;
6;AUSGEZEICHNET;positiv;p;0;14;14;15;p;1;1.9621108999999706;002;NSDS65;2019_Dec_05_1212;iat_vr;59.982641023855635;
6;STADT;Gemacht;q;0;15;15;6;q;1;1.327622999999221;002;NSDS65;2019_Dec_05_1212;iat_vr;59.982641023855635;
6;SCHLECHT;negativ;q;0;16;16;11;q;1;1.113132299999961;002;NSDS65;2019_Dec_05_1212;iat_vr;59.982641023855635;
6;SCHÄDLICH;negativ;q;0;17;17;13;q;1;0.7460023000003275;002;NSDS65;2019_Dec_05_1212;iat_vr;59.982641023855635;
6;WASSER;Natur;p;0;18;18;1;q;0;0.9809544999998252;002;NSDS65;2019_Dec_05_1212;iat_vr;59.982641023855635;
6;LAMPE;Gemacht;q;0;19;19;9;q;1;1.5690662000006341;002;NSDS65;2019_Dec_05_1212;iat_vr;59.982641023855635;
;;;;;;;;;;;002;NSDS65;2019_Dec_05_1212;iat_vr;59.982641023855635;
7;LAMPE;Gemacht;q;0;0;0;9;p;0;1.8142292999991696;002;NSDS65;2019_Dec_05_1212;iat_vr;59.982641023855635;
7;HERVORRAGEND;positiv;p;0;1;1;17;p;1;1.1840515000003506;002;NSDS65;2019_Dec_05_1212;iat_vr;59.982641023855635;
7;EINWANDFREI;positiv;p;0;2;2;16;p;1;0.877552600000854;002;NSDS65;2019_Dec_05_1212;iat_vr;59.982641023855635;
7;TIER;Natur;p;0;3;3;3;p;1;1.1349528000000646;002;NSDS65;2019_Dec_05_1212;iat_vr;59.982641023855635;
7;STEIN;Natur;p;0;4;4;4;p;1;0.9314318999995521;002;NSDS65;2019_Dec_05_1212;iat_vr;59.982641023855635;
7;COMPUTER;Gemacht;q;0;5;5;8;q;1;1.0815994999993563;002;NSDS65;2019_Dec_05_1212;iat_vr;59.982641023855635;
7;SCHLECHT;negativ;q;0;6;6;11;q;1;0.731391899999835;002;NSDS65;2019_Dec_05_1212;iat_vr;59.982641023855635;
7;STADT;Gemacht;q;0;7;7;6;q;1;0.9637942999997904;002;NSDS65;2019_Dec_05_1212;iat_vr;59.982641023855635;
7;SCHÄDLICH;negativ;q;0;8;8;13;q;1;0.9351435999997193;002;NSDS65;2019_Dec_05_1212;iat_vr;59.982641023855635;
7;BAUM;Natur;p;0;9;9;0;p;1;0.9472046000000773;002;NSDS65;2019_Dec_05_1212;iat_vr;59.982641023855635;
7;BLUME;Natur;p;0;10;10;2;p;1;0.8354130999996414;002;NSDS65;2019_Dec_05_1212;iat_vr;59.982641023855635;
7;AUSGEZEICHNET;positiv;p;0;11;11;15;p;1;0.8588812000007238;002;NSDS65;2019_Dec_05_1212;iat_vr;59.982641023855635;
7;SCHLIMM;negativ;q;0;12;12;10;q;1;0.9141754999991463;002;NSDS65;2019_Dec_05_1212;iat_vr;59.982641023855635;
7;GEBÄUDE;Gemacht;q;0;13;13;5;q;1;0.8174761999998736;002;NSDS65;2019_Dec_05_1212;iat_vr;59.982641023855635;
7;POSITIV;positiv;p;0;14;14;18;p;1;0.9067977000004248;002;NSDS65;2019_Dec_05_1212;iat_vr;59.982641023855635;
7;WASSER;Natur;p;0;15;15;1;q;0;1.1019749999995838;002;NSDS65;2019_Dec_05_1212;iat_vr;59.982641023855635;
7;SCHWACH;negativ;q;0;16;16;14;q;1;1.0188951999998608;002;NSDS65;2019_Dec_05_1212;iat_vr;59.982641023855635;
7;KLEIDER;Gemacht;q;0;17;17;7;q;1;1.3795579999996335;002;NSDS65;2019_Dec_05_1212;iat_vr;59.982641023855635;
7;NEGATIV;negativ;q;0;18;18;12;q;1;1.1685365000003003;002;NSDS65;2019_Dec_05_1212;iat_vr;59.982641023855635;
7;GUT;positiv;p;0;19;19;19;p;1;0.9318846999995003;002;NSDS65;2019_Dec_05_1212;iat_vr;59.982641023855635;
7;KLEIDER;Gemacht;q;1;0;20;7;q;1;1.580340100000285;002;NSDS65;2019_Dec_05_1212;iat_vr;59.982641023855635;
7;SCHWACH;negativ;q;1;1;21;14;q;1;1.0832821000003605;002;NSDS65;2019_Dec_05_1212;iat_vr;59.982641023855635;
7;STEIN;Natur;p;1;2;22;4;p;1;0.889223299999685;002;NSDS65;2019_Dec_05_1212;iat_vr;59.982641023855635;
7;POSITIV;positiv;p;1;3;23;18;p;1;0.7463564999998198;002;NSDS65;2019_Dec_05_1212;iat_vr;59.982641023855635;
7;BAUM;Natur;p;1;4;24;0;p;1;0.9339661000003616;002;NSDS65;2019_Dec_05_1212;iat_vr;59.982641023855635;
7;LAMPE;Gemacht;q;1;5;25;9;q;1;1.2346056999995199;002;NSDS65;2019_Dec_05_1212;iat_vr;59.982641023855635;
7;STADT;Gemacht;q;1;6;26;6;q;1;0.7645683999999164;002;NSDS65;2019_Dec_05_1212;iat_vr;59.982641023855635;
7;COMPUTER;Gemacht;q;1;7;27;8;q;1;0.9633632000004582;002;NSDS65;2019_Dec_05_1212;iat_vr;59.982641023855635;
7;HERVORRAGEND;positiv;p;1;8;28;17;p;1;1.064794100000654;002;NSDS65;2019_Dec_05_1212;iat_vr;59.982641023855635;
7;EINWANDFREI;positiv;p;1;9;29;16;p;1;1.0599296000000322;002;NSDS65;2019_Dec_05_1212;iat_vr;59.982641023855635;
7;GUT;positiv;p;1;10;30;19;p;1;0.7994987000001856;002;NSDS65;2019_Dec_05_1212;iat_vr;59.982641023855635;
7;GEBÄUDE;Gemacht;q;1;11;31;5;q;1;1.413558500000363;002;NSDS65;2019_Dec_05_1212;iat_vr;59.982641023855635;
7;SCHLECHT;negativ;q;1;12;32;11;q;1;1.0130090000002383;002;NSDS65;2019_Dec_05_1212;iat_vr;59.982641023855635;
7;TIER;Natur;p;1;13;33;3;q;0;0.8646522999997615;002;NSDS65;2019_Dec_05_1212;iat_vr;59.982641023855635;
7;WASSER;Natur;p;1;14;34;1;p;1;0.8011450999993031;002;NSDS65;2019_Dec_05_1212;iat_vr;59.982641023855635;
7;AUSGEZEICHNET;positiv;p;1;15;35;15;p;1;0.9857692000005045;002;NSDS65;2019_Dec_05_1212;iat_vr;59.982641023855635;
7;BLUME;Natur;p;1;16;36;2;p;1;1.4961361999994551;002;NSDS65;2019_Dec_05_1212;iat_vr;59.982641023855635;
7;SCHÄDLICH;negativ;q;1;17;37;13;q;1;1.0140529999998762;002;NSDS65;2019_Dec_05_1212;iat_vr;59.982641023855635;
7;NEGATIV;negativ;q;1;18;38;12;q;1;0.9634498999994321;002;NSDS65;2019_Dec_05_1212;iat_vr;59.982641023855635;
7;SCHLIMM;negativ;q;1;19;39;10;q;1;0.9304517999999007;002;NSDS65;2019_Dec_05_1212;iat_vr;59.982641023855635;
;;;;;;;;;;;002;NSDS65;2019_Dec_05_1212;iat_vr;59.982641023855635;
