Block;Word;Category;CorrResp;trials.thisRepN;trials.thisTrialN;trials.thisN;trials.thisIndex;key_resp_2.keys;key_resp_2.corr;key_resp_2.rt;session;participant;date;expName;frameRate;
1;KLEIDER;Gemacht;p;0;0;0;7;p;1;2.185200600000826;002;NSGC98;2019_Dec_05_1631;iat_vr;59.96196013252798;
1;STEIN;Natur;q;0;1;1;4;q;1;0.831613300000754;002;NSGC98;2019_Dec_05_1631;iat_vr;59.96196013252798;
1;COMPUTER;Gemacht;p;0;2;2;8;p;1;0.7490814999982831;002;NSGC98;2019_Dec_05_1631;iat_vr;59.96196013252798;
1;GEBÄUDE;Gemacht;p;0;3;3;5;p;1;0.8243376999998873;002;NSGC98;2019_Dec_05_1631;iat_vr;59.96196013252798;
1;BLUME;Natur;q;0;4;4;2;q;1;0.7317508000014641;002;NSGC98;2019_Dec_05_1631;iat_vr;59.96196013252798;
1;BAUM;Natur;q;0;5;5;0;q;1;0.7109253999988141;002;NSGC98;2019_Dec_05_1631;iat_vr;59.96196013252798;
1;LAMPE;Gemacht;p;0;6;6;9;p;1;0.6302853999986837;002;NSGC98;2019_Dec_05_1631;iat_vr;59.96196013252798;
1;STADT;Gemacht;p;0;7;7;6;p;1;0.5794580999972823;002;NSGC98;2019_Dec_05_1631;iat_vr;59.96196013252798;
1;WASSER;Natur;q;0;8;8;1;q;1;0.531285700002627;002;NSGC98;2019_Dec_05_1631;iat_vr;59.96196013252798;
1;TIER;Natur;q;0;9;9;3;q;1;0.6185213999997359;002;NSGC98;2019_Dec_05_1631;iat_vr;59.96196013252798;
1;WASSER;Natur;q;1;0;10;1;q;1;0.6791505999972287;002;NSGC98;2019_Dec_05_1631;iat_vr;59.96196013252798;
1;STEIN;Natur;q;1;1;11;4;q;1;0.6842470999981742;002;NSGC98;2019_Dec_05_1631;iat_vr;59.96196013252798;
1;GEBÄUDE;Gemacht;p;1;2;12;5;p;1;0.7597358000020904;002;NSGC98;2019_Dec_05_1631;iat_vr;59.96196013252798;
1;TIER;Natur;q;1;3;13;3;q;1;1.0671921000030125;002;NSGC98;2019_Dec_05_1631;iat_vr;59.96196013252798;
1;BAUM;Natur;q;1;4;14;0;q;1;0.6827788000009605;002;NSGC98;2019_Dec_05_1631;iat_vr;59.96196013252798;
1;COMPUTER;Gemacht;p;1;5;15;8;p;1;0.7016856999980519;002;NSGC98;2019_Dec_05_1631;iat_vr;59.96196013252798;
1;KLEIDER;Gemacht;p;1;6;16;7;p;1;1.918214600002102;002;NSGC98;2019_Dec_05_1631;iat_vr;59.96196013252798;
1;BLUME;Natur;q;1;7;17;2;q;1;0.6162626999976055;002;NSGC98;2019_Dec_05_1631;iat_vr;59.96196013252798;
1;LAMPE;Gemacht;p;1;8;18;9;p;1;0.897961700000451;002;NSGC98;2019_Dec_05_1631;iat_vr;59.96196013252798;
1;STADT;Gemacht;p;1;9;19;6;p;1;0.7985240000016347;002;NSGC98;2019_Dec_05_1631;iat_vr;59.96196013252798;
;;;;;;;;;;;002;NSGC98;2019_Dec_05_1631;iat_vr;59.96196013252798;
2;EINWANDFREI;positiv;p;0;0;0;6;p;1;1.0728496000010637;002;NSGC98;2019_Dec_05_1631;iat_vr;59.96196013252798;
2;SCHWACH;negativ;q;0;1;1;4;q;1;0.7909405999998853;002;NSGC98;2019_Dec_05_1631;iat_vr;59.96196013252798;
2;SCHÄDLICH;negativ;q;0;2;2;3;q;1;1.7635458000004292;002;NSGC98;2019_Dec_05_1631;iat_vr;59.96196013252798;
2;HERVORRAGEND;positiv;p;0;3;3;7;p;1;2.0020433999998204;002;NSGC98;2019_Dec_05_1631;iat_vr;59.96196013252798;
2;AUSGEZEICHNET;positiv;p;0;4;4;5;p;1;0.6815549999992072;002;NSGC98;2019_Dec_05_1631;iat_vr;59.96196013252798;
2;GUT;positiv;p;0;5;5;9;p;1;0.5975954000023194;002;NSGC98;2019_Dec_05_1631;iat_vr;59.96196013252798;
2;SCHLECHT;negativ;q;0;6;6;1;q;1;0.6810518000020238;002;NSGC98;2019_Dec_05_1631;iat_vr;59.96196013252798;
2;SCHLIMM;negativ;q;0;7;7;0;q;1;0.6162578000003123;002;NSGC98;2019_Dec_05_1631;iat_vr;59.96196013252798;
2;NEGATIV;negativ;q;0;8;8;2;q;1;0.6835417000002053;002;NSGC98;2019_Dec_05_1631;iat_vr;59.96196013252798;
2;POSITIV;positiv;p;0;9;9;8;p;1;0.5434158999996725;002;NSGC98;2019_Dec_05_1631;iat_vr;59.96196013252798;
2;SCHLIMM;negativ;q;1;0;10;0;q;1;0.8010508999977901;002;NSGC98;2019_Dec_05_1631;iat_vr;59.96196013252798;
2;SCHLECHT;negativ;q;1;1;11;1;q;1;0.6811243000011018;002;NSGC98;2019_Dec_05_1631;iat_vr;59.96196013252798;
2;SCHWACH;negativ;q;1;2;12;4;q;1;1.2348848000001453;002;NSGC98;2019_Dec_05_1631;iat_vr;59.96196013252798;
2;GUT;positiv;p;1;3;13;9;p;1;0.5161083000020881;002;NSGC98;2019_Dec_05_1631;iat_vr;59.96196013252798;
2;AUSGEZEICHNET;positiv;p;1;4;14;5;p;1;0.5155913999988115;002;NSGC98;2019_Dec_05_1631;iat_vr;59.96196013252798;
2;NEGATIV;negativ;q;1;5;15;2;q;1;0.529252300002554;002;NSGC98;2019_Dec_05_1631;iat_vr;59.96196013252798;
2;SCHÄDLICH;negativ;q;1;6;16;3;q;1;0.7683795000011742;002;NSGC98;2019_Dec_05_1631;iat_vr;59.96196013252798;
2;EINWANDFREI;positiv;p;1;7;17;6;p;1;1.143068299999868;002;NSGC98;2019_Dec_05_1631;iat_vr;59.96196013252798;
2;HERVORRAGEND;positiv;p;1;8;18;7;p;1;0.5513782999987598;002;NSGC98;2019_Dec_05_1631;iat_vr;59.96196013252798;
2;POSITIV;positiv;p;1;9;19;8;p;1;0.4927194999982021;002;NSGC98;2019_Dec_05_1631;iat_vr;59.96196013252798;
;;;;;;;;;;;002;NSGC98;2019_Dec_05_1631;iat_vr;59.96196013252798;
3;NEGATIV;negativ;q;0;0;0;2;q;1;1.0627859000014723;002;NSGC98;2019_Dec_05_1631;iat_vr;59.96196013252798;
3;WASSER;Natur;q;0;1;1;11;q;1;0.5983925000000454;002;NSGC98;2019_Dec_05_1631;iat_vr;59.96196013252798;
3;SCHWACH;negativ;q;0;2;2;4;q;1;0.9974684000007983;002;NSGC98;2019_Dec_05_1631;iat_vr;59.96196013252798;
3;BAUM;Natur;q;0;3;3;10;q;1;2.0994003000014345;002;NSGC98;2019_Dec_05_1631;iat_vr;59.96196013252798;
3;COMPUTER;Gemacht;p;0;4;4;18;p;1;1.0496684999998251;002;NSGC98;2019_Dec_05_1631;iat_vr;59.96196013252798;
3;GUT;positiv;p;0;5;5;9;p;1;1.1322073999981512;002;NSGC98;2019_Dec_05_1631;iat_vr;59.96196013252798;
3;SCHLECHT;negativ;q;0;6;6;1;p;0;0.6283233000031032;002;NSGC98;2019_Dec_05_1631;iat_vr;59.96196013252798;
3;SCHLIMM;negativ;q;0;7;7;0;q;1;0.5151471999997739;002;NSGC98;2019_Dec_05_1631;iat_vr;59.96196013252798;
3;LAMPE;Gemacht;p;0;8;8;19;p;1;1.2138778999978967;002;NSGC98;2019_Dec_05_1631;iat_vr;59.96196013252798;
3;SCHÄDLICH;negativ;q;0;9;9;3;q;1;2.5012725000015053;002;NSGC98;2019_Dec_05_1631;iat_vr;59.96196013252798;
3;EINWANDFREI;positiv;p;0;10;10;6;p;1;0.9131940999977814;002;NSGC98;2019_Dec_05_1631;iat_vr;59.96196013252798;
3;STADT;Gemacht;p;0;11;11;16;p;1;1.6488826000022527;002;NSGC98;2019_Dec_05_1631;iat_vr;59.96196013252798;
3;KLEIDER;Gemacht;p;0;12;12;17;p;1;1.9283259000003454;002;NSGC98;2019_Dec_05_1631;iat_vr;59.96196013252798;
3;BLUME;Natur;q;0;13;13;12;q;1;3.399841700000252;002;NSGC98;2019_Dec_05_1631;iat_vr;59.96196013252798;
3;POSITIV;positiv;p;0;14;14;8;p;1;0.9018378000000666;002;NSGC98;2019_Dec_05_1631;iat_vr;59.96196013252798;
3;AUSGEZEICHNET;positiv;p;0;15;15;5;p;1;1.3431157000013627;002;NSGC98;2019_Dec_05_1631;iat_vr;59.96196013252798;
3;HERVORRAGEND;positiv;p;0;16;16;7;p;1;1.468982499998674;002;NSGC98;2019_Dec_05_1631;iat_vr;59.96196013252798;
3;TIER;Natur;q;0;17;17;13;q;1;1.4989332000004651;002;NSGC98;2019_Dec_05_1631;iat_vr;59.96196013252798;
3;STEIN;Natur;q;0;18;18;14;q;1;0.7165320000021893;002;NSGC98;2019_Dec_05_1631;iat_vr;59.96196013252798;
3;GEBÄUDE;Gemacht;p;0;19;19;15;p;1;1.7980522999969253;002;NSGC98;2019_Dec_05_1631;iat_vr;59.96196013252798;
;;;;;;;;;;;002;NSGC98;2019_Dec_05_1631;iat_vr;59.96196013252798;
4;WASSER;Natur;q;0;0;0;11;q;1;1.2575219999998808;002;NSGC98;2019_Dec_05_1631;iat_vr;59.96196013252798;
4;SCHWACH;negativ;q;0;1;1;4;q;1;1.0004384999992908;002;NSGC98;2019_Dec_05_1631;iat_vr;59.96196013252798;
4;HERVORRAGEND;positiv;p;0;2;2;7;p;1;0.9501883999982965;002;NSGC98;2019_Dec_05_1631;iat_vr;59.96196013252798;
4;STEIN;Natur;q;0;3;3;14;q;1;1.018140799998946;002;NSGC98;2019_Dec_05_1631;iat_vr;59.96196013252798;
4;LAMPE;Gemacht;p;0;4;4;19;p;1;0.9975389999999607;002;NSGC98;2019_Dec_05_1631;iat_vr;59.96196013252798;
4;NEGATIV;negativ;q;0;5;5;2;q;1;1.2123095000024477;002;NSGC98;2019_Dec_05_1631;iat_vr;59.96196013252798;
4;BLUME;Natur;q;0;6;6;12;q;1;0.701603099998465;002;NSGC98;2019_Dec_05_1631;iat_vr;59.96196013252798;
4;GEBÄUDE;Gemacht;p;0;7;7;15;p;1;0.8157561999978498;002;NSGC98;2019_Dec_05_1631;iat_vr;59.96196013252798;
4;SCHLIMM;negativ;q;0;8;8;0;q;1;1.1816920000019309;002;NSGC98;2019_Dec_05_1631;iat_vr;59.96196013252798;
4;STADT;Gemacht;p;0;9;9;16;p;1;1.5808217999983754;002;NSGC98;2019_Dec_05_1631;iat_vr;59.96196013252798;
4;GUT;positiv;p;0;10;10;9;p;1;1.9659816999992472;002;NSGC98;2019_Dec_05_1631;iat_vr;59.96196013252798;
4;EINWANDFREI;positiv;p;0;11;11;6;p;1;3.0847148000029847;002;NSGC98;2019_Dec_05_1631;iat_vr;59.96196013252798;
4;AUSGEZEICHNET;positiv;p;0;12;12;5;p;1;0.4798621000009007;002;NSGC98;2019_Dec_05_1631;iat_vr;59.96196013252798;
4;KLEIDER;Gemacht;p;0;13;13;17;p;1;2.379552899998089;002;NSGC98;2019_Dec_05_1631;iat_vr;59.96196013252798;
4;COMPUTER;Gemacht;p;0;14;14;18;p;1;0.8178640000005544;002;NSGC98;2019_Dec_05_1631;iat_vr;59.96196013252798;
4;SCHLECHT;negativ;q;0;15;15;1;q;1;0.7437556000004406;002;NSGC98;2019_Dec_05_1631;iat_vr;59.96196013252798;
4;BAUM;Natur;q;0;16;16;10;q;1;1.8652140999984113;002;NSGC98;2019_Dec_05_1631;iat_vr;59.96196013252798;
4;SCHÄDLICH;negativ;q;0;17;17;3;q;1;1.127277999999933;002;NSGC98;2019_Dec_05_1631;iat_vr;59.96196013252798;
4;POSITIV;positiv;p;0;18;18;8;p;1;0.7514583000011044;002;NSGC98;2019_Dec_05_1631;iat_vr;59.96196013252798;
4;TIER;Natur;q;0;19;19;13;q;1;2.198268199997983;002;NSGC98;2019_Dec_05_1631;iat_vr;59.96196013252798;
4;LAMPE;Gemacht;p;1;0;20;19;p;1;0.6153803000015614;002;NSGC98;2019_Dec_05_1631;iat_vr;59.96196013252798;
4;NEGATIV;negativ;q;1;1;21;2;q;1;0.7145782000006875;002;NSGC98;2019_Dec_05_1631;iat_vr;59.96196013252798;
4;HERVORRAGEND;positiv;p;1;2;22;7;p;1;0.7341410000008182;002;NSGC98;2019_Dec_05_1631;iat_vr;59.96196013252798;
4;SCHÄDLICH;negativ;q;1;3;23;3;q;1;0.7519428999985394;002;NSGC98;2019_Dec_05_1631;iat_vr;59.96196013252798;
4;WASSER;Natur;q;1;4;24;11;q;1;1.1673726000008173;002;NSGC98;2019_Dec_05_1631;iat_vr;59.96196013252798;
4;STADT;Gemacht;p;1;5;25;16;p;1;0.6671654999991006;002;NSGC98;2019_Dec_05_1631;iat_vr;59.96196013252798;
4;BLUME;Natur;q;1;6;26;12;q;1;0.6341051000017615;002;NSGC98;2019_Dec_05_1631;iat_vr;59.96196013252798;
4;SCHWACH;negativ;q;1;7;27;4;q;1;2.118226999999024;002;NSGC98;2019_Dec_05_1631;iat_vr;59.96196013252798;
4;COMPUTER;Gemacht;p;1;8;28;18;p;1;0.6817503999991459;002;NSGC98;2019_Dec_05_1631;iat_vr;59.96196013252798;
4;GUT;positiv;p;1;9;29;9;p;1;0.9850540000006731;002;NSGC98;2019_Dec_05_1631;iat_vr;59.96196013252798;
4;POSITIV;positiv;p;1;10;30;8;p;1;0.5958718000001682;002;NSGC98;2019_Dec_05_1631;iat_vr;59.96196013252798;
4;STEIN;Natur;q;1;11;31;14;q;1;0.7155156999979226;002;NSGC98;2019_Dec_05_1631;iat_vr;59.96196013252798;
4;BAUM;Natur;q;1;12;32;10;q;1;0.6141357999986212;002;NSGC98;2019_Dec_05_1631;iat_vr;59.96196013252798;
4;SCHLIMM;negativ;q;1;13;33;0;q;1;1.2837954999995418;002;NSGC98;2019_Dec_05_1631;iat_vr;59.96196013252798;
4;KLEIDER;Gemacht;p;1;14;34;17;p;1;2.6525569000004907;002;NSGC98;2019_Dec_05_1631;iat_vr;59.96196013252798;
4;SCHLECHT;negativ;q;1;15;35;1;q;1;1.312521600000764;002;NSGC98;2019_Dec_05_1631;iat_vr;59.96196013252798;
4;TIER;Natur;q;1;16;36;13;q;1;2.667455200000404;002;NSGC98;2019_Dec_05_1631;iat_vr;59.96196013252798;
4;GEBÄUDE;Gemacht;p;1;17;37;15;p;1;0.7312538000005588;002;NSGC98;2019_Dec_05_1631;iat_vr;59.96196013252798;
4;EINWANDFREI;positiv;p;1;18;38;6;p;1;0.9187194999976782;002;NSGC98;2019_Dec_05_1631;iat_vr;59.96196013252798;
4;AUSGEZEICHNET;positiv;p;1;19;39;5;p;1;0.7248326000008092;002;NSGC98;2019_Dec_05_1631;iat_vr;59.96196013252798;
;;;;;;;;;;;002;NSGC98;2019_Dec_05_1631;iat_vr;59.96196013252798;
5;STADT;Gemacht;q;0;0;0;6;q;1;1.3662904999982857;002;NSGC98;2019_Dec_05_1631;iat_vr;59.96196013252798;
5;STEIN;Natur;p;0;1;1;4;p;1;0.9312930999985838;002;NSGC98;2019_Dec_05_1631;iat_vr;59.96196013252798;
5;LAMPE;Gemacht;q;0;2;2;9;q;1;0.8503646999997727;002;NSGC98;2019_Dec_05_1631;iat_vr;59.96196013252798;
5;GEBÄUDE;Gemacht;q;0;3;3;5;q;1;1.1687821999985317;002;NSGC98;2019_Dec_05_1631;iat_vr;59.96196013252798;
5;KLEIDER;Gemacht;q;0;4;4;7;q;1;0.6133652999997139;002;NSGC98;2019_Dec_05_1631;iat_vr;59.96196013252798;
5;BAUM;Natur;p;0;5;5;0;p;1;0.613739300002635;002;NSGC98;2019_Dec_05_1631;iat_vr;59.96196013252798;
5;COMPUTER;Gemacht;q;0;6;6;8;q;1;0.880981400001474;002;NSGC98;2019_Dec_05_1631;iat_vr;59.96196013252798;
5;WASSER;Natur;p;0;7;7;1;p;1;3.181961099999171;002;NSGC98;2019_Dec_05_1631;iat_vr;59.96196013252798;
5;BLUME;Natur;p;0;8;8;2;p;1;0.6353951000019151;002;NSGC98;2019_Dec_05_1631;iat_vr;59.96196013252798;
5;TIER;Natur;p;0;9;9;3;p;1;0.7012939999985974;002;NSGC98;2019_Dec_05_1631;iat_vr;59.96196013252798;
5;LAMPE;Gemacht;q;1;0;10;9;q;1;0.5793030000022554;002;NSGC98;2019_Dec_05_1631;iat_vr;59.96196013252798;
5;STEIN;Natur;p;1;1;11;4;p;1;2.485643700001674;002;NSGC98;2019_Dec_05_1631;iat_vr;59.96196013252798;
5;BLUME;Natur;p;1;2;12;2;p;1;0.49907949999760604;002;NSGC98;2019_Dec_05_1631;iat_vr;59.96196013252798;
5;COMPUTER;Gemacht;q;1;3;13;8;q;1;0.5961698999999498;002;NSGC98;2019_Dec_05_1631;iat_vr;59.96196013252798;
5;GEBÄUDE;Gemacht;q;1;4;14;5;q;1;1.0129917999984173;002;NSGC98;2019_Dec_05_1631;iat_vr;59.96196013252798;
5;STADT;Gemacht;q;1;5;15;6;q;1;0.6337714000001142;002;NSGC98;2019_Dec_05_1631;iat_vr;59.96196013252798;
5;TIER;Natur;p;1;6;16;3;p;1;0.5851604999988922;002;NSGC98;2019_Dec_05_1631;iat_vr;59.96196013252798;
5;BAUM;Natur;p;1;7;17;0;p;1;0.851140700000542;002;NSGC98;2019_Dec_05_1631;iat_vr;59.96196013252798;
5;KLEIDER;Gemacht;q;1;8;18;7;q;1;0.7302657000000181;002;NSGC98;2019_Dec_05_1631;iat_vr;59.96196013252798;
5;WASSER;Natur;p;1;9;19;1;p;1;0.7937143000017386;002;NSGC98;2019_Dec_05_1631;iat_vr;59.96196013252798;
;;;;;;;;;;;002;NSGC98;2019_Dec_05_1631;iat_vr;59.96196013252798;
6;SCHLECHT;negativ;q;0;0;0;11;q;1;1.0287668999990274;002;NSGC98;2019_Dec_05_1631;iat_vr;59.96196013252798;
6;EINWANDFREI;positiv;p;0;1;1;16;p;1;1.1190959000014118;002;NSGC98;2019_Dec_05_1631;iat_vr;59.96196013252798;
6;LAMPE;Gemacht;q;0;2;2;9;q;1;1.230023899999651;002;NSGC98;2019_Dec_05_1631;iat_vr;59.96196013252798;
6;TIER;Natur;p;0;3;3;3;p;1;1.3021222999996098;002;NSGC98;2019_Dec_05_1631;iat_vr;59.96196013252798;
6;SCHWACH;negativ;q;0;4;4;14;q;1;1.3332321000016236;002;NSGC98;2019_Dec_05_1631;iat_vr;59.96196013252798;
6;STADT;Gemacht;q;0;5;5;6;q;1;0.6934473000001162;002;NSGC98;2019_Dec_05_1631;iat_vr;59.96196013252798;
6;BAUM;Natur;p;0;6;6;0;p;1;0.8824182999996992;002;NSGC98;2019_Dec_05_1631;iat_vr;59.96196013252798;
6;KLEIDER;Gemacht;q;0;7;7;7;q;1;0.6160764000014751;002;NSGC98;2019_Dec_05_1631;iat_vr;59.96196013252798;
6;BLUME;Natur;p;0;8;8;2;p;1;0.7131556999993336;002;NSGC98;2019_Dec_05_1631;iat_vr;59.96196013252798;
6;GUT;positiv;p;0;9;9;19;p;1;1.0668910999993386;002;NSGC98;2019_Dec_05_1631;iat_vr;59.96196013252798;
6;POSITIV;positiv;p;0;10;10;18;p;1;0.6134724000003189;002;NSGC98;2019_Dec_05_1631;iat_vr;59.96196013252798;
6;SCHÄDLICH;negativ;q;0;11;11;13;q;1;0.6853583000010985;002;NSGC98;2019_Dec_05_1631;iat_vr;59.96196013252798;
6;AUSGEZEICHNET;positiv;p;0;12;12;15;p;1;0.7610409999979311;002;NSGC98;2019_Dec_05_1631;iat_vr;59.96196013252798;
6;WASSER;Natur;p;0;13;13;1;p;1;1.231149600000208;002;NSGC98;2019_Dec_05_1631;iat_vr;59.96196013252798;
6;NEGATIV;negativ;q;0;14;14;12;q;1;0.7480701999993471;002;NSGC98;2019_Dec_05_1631;iat_vr;59.96196013252798;
6;COMPUTER;Gemacht;q;0;15;15;8;q;1;0.711974799996824;002;NSGC98;2019_Dec_05_1631;iat_vr;59.96196013252798;
6;HERVORRAGEND;positiv;p;0;16;16;17;p;1;0.7353570999985095;002;NSGC98;2019_Dec_05_1631;iat_vr;59.96196013252798;
6;STEIN;Natur;p;0;17;17;4;p;1;1.5177023000032932;002;NSGC98;2019_Dec_05_1631;iat_vr;59.96196013252798;
6;SCHLIMM;negativ;q;0;18;18;10;q;1;0.6851680999970995;002;NSGC98;2019_Dec_05_1631;iat_vr;59.96196013252798;
6;GEBÄUDE;Gemacht;q;0;19;19;5;q;1;0.7971613000008801;002;NSGC98;2019_Dec_05_1631;iat_vr;59.96196013252798;
;;;;;;;;;;;002;NSGC98;2019_Dec_05_1631;iat_vr;59.96196013252798;
7;NEGATIV;negativ;q;0;0;0;12;q;1;0.7235287999974389;002;NSGC98;2019_Dec_05_1631;iat_vr;59.96196013252798;
7;WASSER;Natur;p;0;1;1;1;p;1;0.633470099997794;002;NSGC98;2019_Dec_05_1631;iat_vr;59.96196013252798;
7;SCHWACH;negativ;q;0;2;2;14;q;1;0.7184143000013137;002;NSGC98;2019_Dec_05_1631;iat_vr;59.96196013252798;
7;AUSGEZEICHNET;positiv;p;0;3;3;15;p;1;0.679131500000949;002;NSGC98;2019_Dec_05_1631;iat_vr;59.96196013252798;
7;STADT;Gemacht;q;0;4;4;6;q;1;1.1641354999992473;002;NSGC98;2019_Dec_05_1631;iat_vr;59.96196013252798;
7;STEIN;Natur;p;0;5;5;4;p;1;0.8645692999998573;002;NSGC98;2019_Dec_05_1631;iat_vr;59.96196013252798;
7;GEBÄUDE;Gemacht;q;0;6;6;5;q;1;3.5165607999988424;002;NSGC98;2019_Dec_05_1631;iat_vr;59.96196013252798;
7;EINWANDFREI;positiv;p;0;7;7;16;p;1;0.615174599999591;002;NSGC98;2019_Dec_05_1631;iat_vr;59.96196013252798;
7;BAUM;Natur;p;0;8;8;0;p;1;0.8481032000017876;002;NSGC98;2019_Dec_05_1631;iat_vr;59.96196013252798;
7;SCHLIMM;negativ;q;0;9;9;10;q;1;0.6467751999989559;002;NSGC98;2019_Dec_05_1631;iat_vr;59.96196013252798;
7;LAMPE;Gemacht;q;0;10;10;9;q;1;1.032067799998913;002;NSGC98;2019_Dec_05_1631;iat_vr;59.96196013252798;
7;SCHÄDLICH;negativ;q;0;11;11;13;q;1;0.8621988000013516;002;NSGC98;2019_Dec_05_1631;iat_vr;59.96196013252798;
7;GUT;positiv;p;0;12;12;19;p;1;0.6135300999994797;002;NSGC98;2019_Dec_05_1631;iat_vr;59.96196013252798;
7;TIER;Natur;p;0;13;13;3;p;1;0.7349520999996457;002;NSGC98;2019_Dec_05_1631;iat_vr;59.96196013252798;
7;POSITIV;positiv;p;0;14;14;18;p;1;0.6682198000016797;002;NSGC98;2019_Dec_05_1631;iat_vr;59.96196013252798;
7;BLUME;Natur;p;0;15;15;2;p;1;1.5141145999987202;002;NSGC98;2019_Dec_05_1631;iat_vr;59.96196013252798;
7;SCHLECHT;negativ;q;0;16;16;11;q;1;0.6143495000032999;002;NSGC98;2019_Dec_05_1631;iat_vr;59.96196013252798;
7;KLEIDER;Gemacht;q;0;17;17;7;q;1;0.8502636000011989;002;NSGC98;2019_Dec_05_1631;iat_vr;59.96196013252798;
7;HERVORRAGEND;positiv;p;0;18;18;17;p;1;1.9838135999998485;002;NSGC98;2019_Dec_05_1631;iat_vr;59.96196013252798;
7;COMPUTER;Gemacht;q;0;19;19;8;q;1;0.5650257000015699;002;NSGC98;2019_Dec_05_1631;iat_vr;59.96196013252798;
7;BLUME;Natur;p;1;0;20;2;p;1;0.764898199999152;002;NSGC98;2019_Dec_05_1631;iat_vr;59.96196013252798;
7;EINWANDFREI;positiv;p;1;1;21;16;p;1;3.714084200000798;002;NSGC98;2019_Dec_05_1631;iat_vr;59.96196013252798;
7;BAUM;Natur;p;1;2;22;0;p;1;0.8356910000002244;002;NSGC98;2019_Dec_05_1631;iat_vr;59.96196013252798;
7;AUSGEZEICHNET;positiv;p;1;3;23;15;p;1;0.8206520000021555;002;NSGC98;2019_Dec_05_1631;iat_vr;59.96196013252798;
7;LAMPE;Gemacht;q;1;4;24;9;q;1;0.7814589000008709;002;NSGC98;2019_Dec_05_1631;iat_vr;59.96196013252798;
7;SCHLECHT;negativ;q;1;5;25;11;q;1;1.4130084999997052;002;NSGC98;2019_Dec_05_1631;iat_vr;59.96196013252798;
7;SCHWACH;negativ;q;1;6;26;14;p;0;0.6848023000020476;002;NSGC98;2019_Dec_05_1631;iat_vr;59.96196013252798;
7;KLEIDER;Gemacht;q;1;7;27;7;q;1;0.800715900000796;002;NSGC98;2019_Dec_05_1631;iat_vr;59.96196013252798;
7;GUT;positiv;p;1;8;28;19;p;1;0.9180838000029325;002;NSGC98;2019_Dec_05_1631;iat_vr;59.96196013252798;
7;STEIN;Natur;p;1;9;29;4;p;1;0.8015876999998;002;NSGC98;2019_Dec_05_1631;iat_vr;59.96196013252798;
7;NEGATIV;negativ;q;1;10;30;12;q;1;0.63139990000127;002;NSGC98;2019_Dec_05_1631;iat_vr;59.96196013252798;
7;HERVORRAGEND;positiv;p;1;11;31;17;p;1;0.8856314000004204;002;NSGC98;2019_Dec_05_1631;iat_vr;59.96196013252798;
7;POSITIV;positiv;p;1;12;32;18;p;1;0.8667664999993576;002;NSGC98;2019_Dec_05_1631;iat_vr;59.96196013252798;
7;COMPUTER;Gemacht;q;1;13;33;8;q;1;0.7281273000007786;002;NSGC98;2019_Dec_05_1631;iat_vr;59.96196013252798;
7;SCHLIMM;negativ;q;1;14;34;10;q;1;0.6657792999976664;002;NSGC98;2019_Dec_05_1631;iat_vr;59.96196013252798;
7;GEBÄUDE;Gemacht;q;1;15;35;5;q;1;0.7978010999977414;002;NSGC98;2019_Dec_05_1631;iat_vr;59.96196013252798;
7;SCHÄDLICH;negativ;q;1;16;36;13;q;1;0.7298114000004716;002;NSGC98;2019_Dec_05_1631;iat_vr;59.96196013252798;
7;STADT;Gemacht;q;1;17;37;6;q;1;0.7833957999973791;002;NSGC98;2019_Dec_05_1631;iat_vr;59.96196013252798;
7;TIER;Natur;p;1;18;38;3;p;1;0.7005155000006198;002;NSGC98;2019_Dec_05_1631;iat_vr;59.96196013252798;
7;WASSER;Natur;p;1;19;39;1;p;1;1.2343925999994099;002;NSGC98;2019_Dec_05_1631;iat_vr;59.96196013252798;
;;;;;;;;;;;002;NSGC98;2019_Dec_05_1631;iat_vr;59.96196013252798;
