Block;Word;Category;CorrResp;trials.thisRepN;trials.thisTrialN;trials.thisN;trials.thisIndex;key_resp_2.keys;key_resp_2.corr;key_resp_2.rt;session;participant;date;expName;frameRate;
1;BLUME;Natur;q;0;0;0;2;q;1;2.1648700999999164;001;NSGS90;2019_Dec_06_1700;iat_vr;60.060276493481425;
1;LAMPE;Gemacht;p;0;1;1;9;p;1;0.994095199999947;001;NSGS90;2019_Dec_06_1700;iat_vr;60.060276493481425;
1;TIER;Natur;q;0;2;2;3;q;1;1.5567031999999017;001;NSGS90;2019_Dec_06_1700;iat_vr;60.060276493481425;
1;WASSER;Natur;q;0;3;3;1;q;1;0.7915848000000096;001;NSGS90;2019_Dec_06_1700;iat_vr;60.060276493481425;
1;KLEIDER;Gemacht;p;0;4;4;7;p;1;1.0768719000000146;001;NSGS90;2019_Dec_06_1700;iat_vr;60.060276493481425;
1;BAUM;Natur;q;0;5;5;0;q;1;1.6984153000000788;001;NSGS90;2019_Dec_06_1700;iat_vr;60.060276493481425;
1;COMPUTER;Gemacht;p;0;6;6;8;p;1;1.188358499999822;001;NSGS90;2019_Dec_06_1700;iat_vr;60.060276493481425;
1;STEIN;Natur;q;0;7;7;4;q;1;0.9749300000000858;001;NSGS90;2019_Dec_06_1700;iat_vr;60.060276493481425;
1;STADT;Gemacht;p;0;8;8;6;p;1;1.2140936999999212;001;NSGS90;2019_Dec_06_1700;iat_vr;60.060276493481425;
1;GEBÄUDE;Gemacht;p;0;9;9;5;p;1;1.0621997999999166;001;NSGS90;2019_Dec_06_1700;iat_vr;60.060276493481425;
1;TIER;Natur;q;1;0;10;3;q;1;1.9832234999998946;001;NSGS90;2019_Dec_06_1700;iat_vr;60.060276493481425;
1;BLUME;Natur;q;1;1;11;2;q;1;1.1471555000000535;001;NSGS90;2019_Dec_06_1700;iat_vr;60.060276493481425;
1;KLEIDER;Gemacht;p;1;2;12;7;p;1;1.4306824999998753;001;NSGS90;2019_Dec_06_1700;iat_vr;60.060276493481425;
1;BAUM;Natur;q;1;3;13;0;q;1;2.032265599999846;001;NSGS90;2019_Dec_06_1700;iat_vr;60.060276493481425;
1;STADT;Gemacht;p;1;4;14;6;p;1;0.7750148000000081;001;NSGS90;2019_Dec_06_1700;iat_vr;60.060276493481425;
1;GEBÄUDE;Gemacht;p;1;5;15;5;p;1;1.1148785000000316;001;NSGS90;2019_Dec_06_1700;iat_vr;60.060276493481425;
1;WASSER;Natur;q;1;6;16;1;q;1;0.7516112000000703;001;NSGS90;2019_Dec_06_1700;iat_vr;60.060276493481425;
1;LAMPE;Gemacht;p;1;7;17;9;p;1;0.8815311999999267;001;NSGS90;2019_Dec_06_1700;iat_vr;60.060276493481425;
1;COMPUTER;Gemacht;p;1;8;18;8;p;1;0.6124548000000232;001;NSGS90;2019_Dec_06_1700;iat_vr;60.060276493481425;
1;STEIN;Natur;q;1;9;19;4;q;1;1.0811350999999831;001;NSGS90;2019_Dec_06_1700;iat_vr;60.060276493481425;
;;;;;;;;;;;001;NSGS90;2019_Dec_06_1700;iat_vr;60.060276493481425;
2;GUT;positiv;p;0;0;0;9;p;1;0.7167750999999498;001;NSGS90;2019_Dec_06_1700;iat_vr;60.060276493481425;
2;SCHWACH;negativ;q;0;1;1;4;q;1;1.524992999999995;001;NSGS90;2019_Dec_06_1700;iat_vr;60.060276493481425;
2;SCHLIMM;negativ;q;0;2;2;0;p;0;1.2688760000000912;001;NSGS90;2019_Dec_06_1700;iat_vr;60.060276493481425;
2;SCHÄDLICH;negativ;q;0;3;3;3;q;1;0.34736640000005536;001;NSGS90;2019_Dec_06_1700;iat_vr;60.060276493481425;
2;EINWANDFREI;positiv;p;0;4;4;6;p;1;2.4510801000001265;001;NSGS90;2019_Dec_06_1700;iat_vr;60.060276493481425;
2;POSITIV;positiv;p;0;5;5;8;p;1;0.7428193999999166;001;NSGS90;2019_Dec_06_1700;iat_vr;60.060276493481425;
2;HERVORRAGEND;positiv;p;0;6;6;7;p;1;0.6456873999998152;001;NSGS90;2019_Dec_06_1700;iat_vr;60.060276493481425;
2;SCHLECHT;negativ;q;0;7;7;1;q;1;0.7309214000001703;001;NSGS90;2019_Dec_06_1700;iat_vr;60.060276493481425;
2;AUSGEZEICHNET;positiv;p;0;8;8;5;p;1;0.7713143999999375;001;NSGS90;2019_Dec_06_1700;iat_vr;60.060276493481425;
2;NEGATIV;negativ;q;0;9;9;2;q;1;0.7990648000002238;001;NSGS90;2019_Dec_06_1700;iat_vr;60.060276493481425;
2;SCHLECHT;negativ;q;1;0;10;1;q;1;1.0138084000000163;001;NSGS90;2019_Dec_06_1700;iat_vr;60.060276493481425;
2;SCHLIMM;negativ;q;1;1;11;0;q;1;1.0942282000000887;001;NSGS90;2019_Dec_06_1700;iat_vr;60.060276493481425;
2;AUSGEZEICHNET;positiv;p;1;2;12;5;p;1;0.7668538999998873;001;NSGS90;2019_Dec_06_1700;iat_vr;60.060276493481425;
2;SCHÄDLICH;negativ;q;1;3;13;3;q;1;1.3300507999999809;001;NSGS90;2019_Dec_06_1700;iat_vr;60.060276493481425;
2;SCHWACH;negativ;q;1;4;14;4;q;1;0.6980968999998822;001;NSGS90;2019_Dec_06_1700;iat_vr;60.060276493481425;
2;NEGATIV;negativ;q;1;5;15;2;q;1;1.0688885000001846;001;NSGS90;2019_Dec_06_1700;iat_vr;60.060276493481425;
2;GUT;positiv;p;1;6;16;9;p;1;0.7189510999999129;001;NSGS90;2019_Dec_06_1700;iat_vr;60.060276493481425;
2;EINWANDFREI;positiv;p;1;7;17;6;p;1;0.6118271000000277;001;NSGS90;2019_Dec_06_1700;iat_vr;60.060276493481425;
2;POSITIV;positiv;p;1;8;18;8;p;1;0.5457183000000896;001;NSGS90;2019_Dec_06_1700;iat_vr;60.060276493481425;
2;HERVORRAGEND;positiv;p;1;9;19;7;p;1;0.6351075000000037;001;NSGS90;2019_Dec_06_1700;iat_vr;60.060276493481425;
;;;;;;;;;;;001;NSGS90;2019_Dec_06_1700;iat_vr;60.060276493481425;
3;HERVORRAGEND;positiv;p;0;0;0;7;p;1;1.1239533999998912;001;NSGS90;2019_Dec_06_1700;iat_vr;60.060276493481425;
3;EINWANDFREI;positiv;p;0;1;1;6;p;1;1.098606000000018;001;NSGS90;2019_Dec_06_1700;iat_vr;60.060276493481425;
3;GEBÄUDE;Gemacht;p;0;2;2;15;p;1;1.0613812999999936;001;NSGS90;2019_Dec_06_1700;iat_vr;60.060276493481425;
3;SCHWACH;negativ;q;0;3;3;4;q;1;1.0811609999998382;001;NSGS90;2019_Dec_06_1700;iat_vr;60.060276493481425;
3;BLUME;Natur;q;0;4;4;12;q;1;0.9304706000000351;001;NSGS90;2019_Dec_06_1700;iat_vr;60.060276493481425;
3;STADT;Gemacht;p;0;5;5;16;p;1;1.0980605000002015;001;NSGS90;2019_Dec_06_1700;iat_vr;60.060276493481425;
3;LAMPE;Gemacht;p;0;6;6;19;p;1;1.1670131000000765;001;NSGS90;2019_Dec_06_1700;iat_vr;60.060276493481425;
3;AUSGEZEICHNET;positiv;p;0;7;7;5;p;1;1.026046800000131;001;NSGS90;2019_Dec_06_1700;iat_vr;60.060276493481425;
3;COMPUTER;Gemacht;p;0;8;8;18;p;1;1.5762893000000986;001;NSGS90;2019_Dec_06_1700;iat_vr;60.060276493481425;
3;KLEIDER;Gemacht;p;0;9;9;17;p;1;1.2166440000000875;001;NSGS90;2019_Dec_06_1700;iat_vr;60.060276493481425;
3;POSITIV;positiv;p;0;10;10;8;p;1;1.078477699999894;001;NSGS90;2019_Dec_06_1700;iat_vr;60.060276493481425;
3;GUT;positiv;p;0;11;11;9;p;1;0.7128822999998192;001;NSGS90;2019_Dec_06_1700;iat_vr;60.060276493481425;
3;SCHLIMM;negativ;q;0;12;12;0;q;1;0.7974890000000414;001;NSGS90;2019_Dec_06_1700;iat_vr;60.060276493481425;
3;BAUM;Natur;q;0;13;13;10;q;1;0.7689084999999523;001;NSGS90;2019_Dec_06_1700;iat_vr;60.060276493481425;
3;STEIN;Natur;q;0;14;14;14;q;1;0.6475918000001002;001;NSGS90;2019_Dec_06_1700;iat_vr;60.060276493481425;
3;TIER;Natur;q;0;15;15;13;q;1;1.1645378999999139;001;NSGS90;2019_Dec_06_1700;iat_vr;60.060276493481425;
3;NEGATIV;negativ;q;0;16;16;2;q;1;1.0479929000000539;001;NSGS90;2019_Dec_06_1700;iat_vr;60.060276493481425;
3;SCHÄDLICH;negativ;q;0;17;17;3;q;1;1.0836280000000897;001;NSGS90;2019_Dec_06_1700;iat_vr;60.060276493481425;
3;WASSER;Natur;q;0;18;18;11;q;1;1.9303025000001526;001;NSGS90;2019_Dec_06_1700;iat_vr;60.060276493481425;
3;SCHLECHT;negativ;q;0;19;19;1;q;1;0.9168512999999621;001;NSGS90;2019_Dec_06_1700;iat_vr;60.060276493481425;
;;;;;;;;;;;001;NSGS90;2019_Dec_06_1700;iat_vr;60.060276493481425;
4;HERVORRAGEND;positiv;p;0;0;0;7;p;1;1.337778500000013;001;NSGS90;2019_Dec_06_1700;iat_vr;60.060276493481425;
4;LAMPE;Gemacht;p;0;1;1;19;p;1;0.8127154999999675;001;NSGS90;2019_Dec_06_1700;iat_vr;60.060276493481425;
4;GUT;positiv;p;0;2;2;9;p;1;0.6023700999999164;001;NSGS90;2019_Dec_06_1700;iat_vr;60.060276493481425;
4;NEGATIV;negativ;q;0;3;3;2;q;1;0.7812112999999954;001;NSGS90;2019_Dec_06_1700;iat_vr;60.060276493481425;
4;KLEIDER;Gemacht;p;0;4;4;17;p;1;0.8472486999999091;001;NSGS90;2019_Dec_06_1700;iat_vr;60.060276493481425;
4;COMPUTER;Gemacht;p;0;5;5;18;p;1;0.7632200000000466;001;NSGS90;2019_Dec_06_1700;iat_vr;60.060276493481425;
4;EINWANDFREI;positiv;p;0;6;6;6;p;1;0.9110929999999371;001;NSGS90;2019_Dec_06_1700;iat_vr;60.060276493481425;
4;TIER;Natur;q;0;7;7;13;q;1;1.2138281000000006;001;NSGS90;2019_Dec_06_1700;iat_vr;60.060276493481425;
4;SCHLIMM;negativ;q;0;8;8;0;q;1;0.7185652000000573;001;NSGS90;2019_Dec_06_1700;iat_vr;60.060276493481425;
4;SCHWACH;negativ;q;0;9;9;4;q;1;0.5954635999999027;001;NSGS90;2019_Dec_06_1700;iat_vr;60.060276493481425;
4;POSITIV;positiv;p;0;10;10;8;p;1;1.012516900000037;001;NSGS90;2019_Dec_06_1700;iat_vr;60.060276493481425;
4;BAUM;Natur;q;0;11;11;10;p;0;0.7797883999999158;001;NSGS90;2019_Dec_06_1700;iat_vr;60.060276493481425;
4;GEBÄUDE;Gemacht;p;0;12;12;15;p;1;0.9824842000000444;001;NSGS90;2019_Dec_06_1700;iat_vr;60.060276493481425;
4;SCHÄDLICH;negativ;q;0;13;13;3;q;1;0.7779646999999841;001;NSGS90;2019_Dec_06_1700;iat_vr;60.060276493481425;
4;STADT;Gemacht;p;0;14;14;16;p;1;0.7347356000000218;001;NSGS90;2019_Dec_06_1700;iat_vr;60.060276493481425;
4;WASSER;Natur;q;0;15;15;11;q;1;0.8635200999999597;001;NSGS90;2019_Dec_06_1700;iat_vr;60.060276493481425;
4;SCHLECHT;negativ;q;0;16;16;1;q;1;1.711688299999878;001;NSGS90;2019_Dec_06_1700;iat_vr;60.060276493481425;
4;AUSGEZEICHNET;positiv;p;0;17;17;5;p;1;0.7686072999999851;001;NSGS90;2019_Dec_06_1700;iat_vr;60.060276493481425;
4;BLUME;Natur;q;0;18;18;12;q;1;0.8799317000000428;001;NSGS90;2019_Dec_06_1700;iat_vr;60.060276493481425;
4;STEIN;Natur;q;0;19;19;14;q;1;0.6492737999999463;001;NSGS90;2019_Dec_06_1700;iat_vr;60.060276493481425;
4;STEIN;Natur;q;1;0;20;14;q;1;0.5661677999999029;001;NSGS90;2019_Dec_06_1700;iat_vr;60.060276493481425;
4;GEBÄUDE;Gemacht;p;1;1;21;15;p;1;0.8332992000000559;001;NSGS90;2019_Dec_06_1700;iat_vr;60.060276493481425;
4;TIER;Natur;q;1;2;22;13;q;1;0.7857919000000493;001;NSGS90;2019_Dec_06_1700;iat_vr;60.060276493481425;
4;GUT;positiv;p;1;3;23;9;p;1;1.0008455999998205;001;NSGS90;2019_Dec_06_1700;iat_vr;60.060276493481425;
4;SCHLIMM;negativ;q;1;4;24;0;q;1;1.2520509999999376;001;NSGS90;2019_Dec_06_1700;iat_vr;60.060276493481425;
4;LAMPE;Gemacht;p;1;5;25;19;p;1;1.585428100000172;001;NSGS90;2019_Dec_06_1700;iat_vr;60.060276493481425;
4;STADT;Gemacht;p;1;6;26;16;p;1;0.6632776999999805;001;NSGS90;2019_Dec_06_1700;iat_vr;60.060276493481425;
4;COMPUTER;Gemacht;p;1;7;27;18;p;1;0.6474468999999772;001;NSGS90;2019_Dec_06_1700;iat_vr;60.060276493481425;
4;EINWANDFREI;positiv;p;1;8;28;6;p;1;0.8960268000000724;001;NSGS90;2019_Dec_06_1700;iat_vr;60.060276493481425;
4;HERVORRAGEND;positiv;p;1;9;29;7;p;1;0.5972031999999672;001;NSGS90;2019_Dec_06_1700;iat_vr;60.060276493481425;
4;KLEIDER;Gemacht;p;1;10;30;17;p;1;1.0321423000000323;001;NSGS90;2019_Dec_06_1700;iat_vr;60.060276493481425;
4;POSITIV;positiv;p;1;11;31;8;p;1;0.5658570000000509;001;NSGS90;2019_Dec_06_1700;iat_vr;60.060276493481425;
4;SCHLECHT;negativ;q;1;12;32;1;q;1;0.8848917000000256;001;NSGS90;2019_Dec_06_1700;iat_vr;60.060276493481425;
4;SCHÄDLICH;negativ;q;1;13;33;3;q;1;0.7292069000000083;001;NSGS90;2019_Dec_06_1700;iat_vr;60.060276493481425;
4;BLUME;Natur;q;1;14;34;12;q;1;0.6685164000000441;001;NSGS90;2019_Dec_06_1700;iat_vr;60.060276493481425;
4;AUSGEZEICHNET;positiv;p;1;15;35;5;p;1;1.3758852999999363;001;NSGS90;2019_Dec_06_1700;iat_vr;60.060276493481425;
4;NEGATIV;negativ;q;1;16;36;2;q;1;0.8799747999998999;001;NSGS90;2019_Dec_06_1700;iat_vr;60.060276493481425;
4;SCHWACH;negativ;q;1;17;37;4;q;1;0.6475196999999753;001;NSGS90;2019_Dec_06_1700;iat_vr;60.060276493481425;
4;BAUM;Natur;q;1;18;38;10;q;1;1.26419420000002;001;NSGS90;2019_Dec_06_1700;iat_vr;60.060276493481425;
4;WASSER;Natur;q;1;19;39;11;q;1;0.6789938000001712;001;NSGS90;2019_Dec_06_1700;iat_vr;60.060276493481425;
;;;;;;;;;;;001;NSGS90;2019_Dec_06_1700;iat_vr;60.060276493481425;
5;KLEIDER;Gemacht;q;0;0;0;7;q;1;1.7106794000001173;001;NSGS90;2019_Dec_06_1700;iat_vr;60.060276493481425;
5;TIER;Natur;p;0;1;1;3;p;1;1.4635027000001628;001;NSGS90;2019_Dec_06_1700;iat_vr;60.060276493481425;
5;LAMPE;Gemacht;q;0;2;2;9;q;1;0.9650518999999349;001;NSGS90;2019_Dec_06_1700;iat_vr;60.060276493481425;
5;COMPUTER;Gemacht;q;0;3;3;8;q;1;0.910674599999993;001;NSGS90;2019_Dec_06_1700;iat_vr;60.060276493481425;
5;STADT;Gemacht;q;0;4;4;6;q;1;1.350954799999954;001;NSGS90;2019_Dec_06_1700;iat_vr;60.060276493481425;
5;STEIN;Natur;p;0;5;5;4;p;1;1.2478398000000652;001;NSGS90;2019_Dec_06_1700;iat_vr;60.060276493481425;
5;WASSER;Natur;p;0;6;6;1;q;0;2.5017139999999927;001;NSGS90;2019_Dec_06_1700;iat_vr;60.060276493481425;
5;BAUM;Natur;p;0;7;7;0;p;1;1.2820248000000447;001;NSGS90;2019_Dec_06_1700;iat_vr;60.060276493481425;
5;GEBÄUDE;Gemacht;q;0;8;8;5;q;1;1.245910399999957;001;NSGS90;2019_Dec_06_1700;iat_vr;60.060276493481425;
5;BLUME;Natur;p;0;9;9;2;p;1;0.7989672000001065;001;NSGS90;2019_Dec_06_1700;iat_vr;60.060276493481425;
5;BAUM;Natur;p;1;0;10;0;p;1;0.5851841000001059;001;NSGS90;2019_Dec_06_1700;iat_vr;60.060276493481425;
5;STEIN;Natur;p;1;1;11;4;p;1;0.6356711000000814;001;NSGS90;2019_Dec_06_1700;iat_vr;60.060276493481425;
5;BLUME;Natur;p;1;2;12;2;p;1;0.5834890999999516;001;NSGS90;2019_Dec_06_1700;iat_vr;60.060276493481425;
5;WASSER;Natur;p;1;3;13;1;p;1;0.7177524999999605;001;NSGS90;2019_Dec_06_1700;iat_vr;60.060276493481425;
5;LAMPE;Gemacht;q;1;4;14;9;q;1;0.7832185999998273;001;NSGS90;2019_Dec_06_1700;iat_vr;60.060276493481425;
5;TIER;Natur;p;1;5;15;3;p;1;0.7316004999997858;001;NSGS90;2019_Dec_06_1700;iat_vr;60.060276493481425;
5;STADT;Gemacht;q;1;6;16;6;q;1;0.7336652999999842;001;NSGS90;2019_Dec_06_1700;iat_vr;60.060276493481425;
5;KLEIDER;Gemacht;q;1;7;17;7;q;1;0.6629429999998138;001;NSGS90;2019_Dec_06_1700;iat_vr;60.060276493481425;
5;COMPUTER;Gemacht;q;1;8;18;8;q;1;0.5117760999999064;001;NSGS90;2019_Dec_06_1700;iat_vr;60.060276493481425;
5;GEBÄUDE;Gemacht;q;1;9;19;5;q;1;1.016633899999988;001;NSGS90;2019_Dec_06_1700;iat_vr;60.060276493481425;
;;;;;;;;;;;001;NSGS90;2019_Dec_06_1700;iat_vr;60.060276493481425;
6;POSITIV;positiv;p;0;0;0;18;p;1;1.1092489000000114;001;NSGS90;2019_Dec_06_1700;iat_vr;60.060276493481425;
6;SCHLECHT;negativ;q;0;1;1;11;q;1;0.8791937999999391;001;NSGS90;2019_Dec_06_1700;iat_vr;60.060276493481425;
6;TIER;Natur;p;0;2;2;3;q;0;2.3829835999999887;001;NSGS90;2019_Dec_06_1700;iat_vr;60.060276493481425;
6;NEGATIV;negativ;q;0;3;3;12;p;0;0.26710159999993266;001;NSGS90;2019_Dec_06_1700;iat_vr;60.060276493481425;
6;STADT;Gemacht;q;0;4;4;6;p;0;3.932280399999854;001;NSGS90;2019_Dec_06_1700;iat_vr;60.060276493481425;
6;COMPUTER;Gemacht;q;0;5;5;8;q;1;1.3332609999999931;001;NSGS90;2019_Dec_06_1700;iat_vr;60.060276493481425;
6;HERVORRAGEND;positiv;p;0;6;6;17;p;1;1.400598299999956;001;NSGS90;2019_Dec_06_1700;iat_vr;60.060276493481425;
6;LAMPE;Gemacht;q;0;7;7;9;q;1;1.1305162999999538;001;NSGS90;2019_Dec_06_1700;iat_vr;60.060276493481425;
6;SCHÄDLICH;negativ;q;0;8;8;13;q;1;0.9641785999999684;001;NSGS90;2019_Dec_06_1700;iat_vr;60.060276493481425;
6;BLUME;Natur;p;0;9;9;2;p;1;1.096638799999937;001;NSGS90;2019_Dec_06_1700;iat_vr;60.060276493481425;
6;SCHLIMM;negativ;q;0;10;10;10;q;1;1.233945500000118;001;NSGS90;2019_Dec_06_1700;iat_vr;60.060276493481425;
6;SCHWACH;negativ;q;0;11;11;14;q;1;1.3142287999999098;001;NSGS90;2019_Dec_06_1700;iat_vr;60.060276493481425;
6;WASSER;Natur;p;0;12;12;1;q;0;0.5987612999999783;001;NSGS90;2019_Dec_06_1700;iat_vr;60.060276493481425;
6;KLEIDER;Gemacht;q;0;13;13;7;q;1;5.246212199999945;001;NSGS90;2019_Dec_06_1700;iat_vr;60.060276493481425;
6;GUT;positiv;p;0;14;14;19;p;1;1.0505278000000544;001;NSGS90;2019_Dec_06_1700;iat_vr;60.060276493481425;
6;STEIN;Natur;p;0;15;15;4;p;1;0.6521488999999292;001;NSGS90;2019_Dec_06_1700;iat_vr;60.060276493481425;
6;AUSGEZEICHNET;positiv;p;0;16;16;15;p;1;0.8764870999998493;001;NSGS90;2019_Dec_06_1700;iat_vr;60.060276493481425;
6;BAUM;Natur;p;0;17;17;0;p;1;0.5188391000001502;001;NSGS90;2019_Dec_06_1700;iat_vr;60.060276493481425;
6;EINWANDFREI;positiv;p;0;18;18;16;p;1;1.0117058000000725;001;NSGS90;2019_Dec_06_1700;iat_vr;60.060276493481425;
6;GEBÄUDE;Gemacht;q;0;19;19;5;q;1;0.7643209999998817;001;NSGS90;2019_Dec_06_1700;iat_vr;60.060276493481425;
;;;;;;;;;;;001;NSGS90;2019_Dec_06_1700;iat_vr;60.060276493481425;
7;LAMPE;Gemacht;q;0;0;0;9;q;1;3.4612564999999904;001;NSGS90;2019_Dec_06_1700;iat_vr;60.060276493481425;
7;COMPUTER;Gemacht;q;0;1;1;8;q;1;0.69526350000001;001;NSGS90;2019_Dec_06_1700;iat_vr;60.060276493481425;
7;BAUM;Natur;p;0;2;2;0;p;1;0.9844167000001107;001;NSGS90;2019_Dec_06_1700;iat_vr;60.060276493481425;
7;STEIN;Natur;p;0;3;3;4;p;1;0.7142131999999037;001;NSGS90;2019_Dec_06_1700;iat_vr;60.060276493481425;
7;TIER;Natur;p;0;4;4;3;p;1;3.1301745000000665;001;NSGS90;2019_Dec_06_1700;iat_vr;60.060276493481425;
7;SCHÄDLICH;negativ;q;0;5;5;13;q;1;1.0335418000001937;001;NSGS90;2019_Dec_06_1700;iat_vr;60.060276493481425;
7;EINWANDFREI;positiv;p;0;6;6;16;p;1;1.1478197999999793;001;NSGS90;2019_Dec_06_1700;iat_vr;60.060276493481425;
7;STADT;Gemacht;q;0;7;7;6;q;1;0.9157482999999047;001;NSGS90;2019_Dec_06_1700;iat_vr;60.060276493481425;
7;BLUME;Natur;p;0;8;8;2;p;1;1.0832582999998976;001;NSGS90;2019_Dec_06_1700;iat_vr;60.060276493481425;
7;KLEIDER;Gemacht;q;0;9;9;7;q;1;1.1653731999999764;001;NSGS90;2019_Dec_06_1700;iat_vr;60.060276493481425;
7;SCHLECHT;negativ;q;0;10;10;11;q;1;1.3459663000001;001;NSGS90;2019_Dec_06_1700;iat_vr;60.060276493481425;
7;SCHWACH;negativ;q;0;11;11;14;q;1;0.9509493000000475;001;NSGS90;2019_Dec_06_1700;iat_vr;60.060276493481425;
7;GEBÄUDE;Gemacht;q;0;12;12;5;q;1;2.4351444999999785;001;NSGS90;2019_Dec_06_1700;iat_vr;60.060276493481425;
7;POSITIV;positiv;p;0;13;13;18;p;1;0.8983858999999939;001;NSGS90;2019_Dec_06_1700;iat_vr;60.060276493481425;
7;AUSGEZEICHNET;positiv;p;0;14;14;15;p;1;0.744774100000086;001;NSGS90;2019_Dec_06_1700;iat_vr;60.060276493481425;
7;NEGATIV;negativ;q;0;15;15;12;q;1;0.7522658999998839;001;NSGS90;2019_Dec_06_1700;iat_vr;60.060276493481425;
7;GUT;positiv;p;0;16;16;19;p;1;0.665774699999929;001;NSGS90;2019_Dec_06_1700;iat_vr;60.060276493481425;
7;HERVORRAGEND;positiv;p;0;17;17;17;p;1;0.5691600999998627;001;NSGS90;2019_Dec_06_1700;iat_vr;60.060276493481425;
7;WASSER;Natur;p;0;18;18;1;p;1;1.3820337000001928;001;NSGS90;2019_Dec_06_1700;iat_vr;60.060276493481425;
7;SCHLIMM;negativ;q;0;19;19;10;q;1;0.8850824000001012;001;NSGS90;2019_Dec_06_1700;iat_vr;60.060276493481425;
7;SCHLIMM;negativ;q;1;0;20;10;q;1;0.7355010999999649;001;NSGS90;2019_Dec_06_1700;iat_vr;60.060276493481425;
7;KLEIDER;Gemacht;q;1;1;21;7;q;1;2.0801870000000235;001;NSGS90;2019_Dec_06_1700;iat_vr;60.060276493481425;
7;SCHÄDLICH;negativ;q;1;2;22;13;q;1;0.8347641999998814;001;NSGS90;2019_Dec_06_1700;iat_vr;60.060276493481425;
7;SCHLECHT;negativ;q;1;3;23;11;q;1;0.6274513999999272;001;NSGS90;2019_Dec_06_1700;iat_vr;60.060276493481425;
7;POSITIV;positiv;p;1;4;24;18;p;1;0.6173576000001049;001;NSGS90;2019_Dec_06_1700;iat_vr;60.060276493481425;
7;GUT;positiv;p;1;5;25;19;p;1;0.5152069000000665;001;NSGS90;2019_Dec_06_1700;iat_vr;60.060276493481425;
7;AUSGEZEICHNET;positiv;p;1;6;26;15;p;1;0.6518720000001395;001;NSGS90;2019_Dec_06_1700;iat_vr;60.060276493481425;
7;COMPUTER;Gemacht;q;1;7;27;8;q;1;1.0452841999999691;001;NSGS90;2019_Dec_06_1700;iat_vr;60.060276493481425;
7;STEIN;Natur;p;1;8;28;4;p;1;0.6015150000000631;001;NSGS90;2019_Dec_06_1700;iat_vr;60.060276493481425;
7;WASSER;Natur;p;1;9;29;1;p;1;0.8631941999999526;001;NSGS90;2019_Dec_06_1700;iat_vr;60.060276493481425;
7;NEGATIV;negativ;q;1;10;30;12;q;1;0.8147980999999618;001;NSGS90;2019_Dec_06_1700;iat_vr;60.060276493481425;
7;GEBÄUDE;Gemacht;q;1;11;31;5;q;1;2.597335300000168;001;NSGS90;2019_Dec_06_1700;iat_vr;60.060276493481425;
7;BLUME;Natur;p;1;12;32;2;p;1;1.1353253000002042;001;NSGS90;2019_Dec_06_1700;iat_vr;60.060276493481425;
7;LAMPE;Gemacht;q;1;13;33;9;q;1;1.0148841000000175;001;NSGS90;2019_Dec_06_1700;iat_vr;60.060276493481425;
7;STADT;Gemacht;q;1;14;34;6;q;1;1.164563600000065;001;NSGS90;2019_Dec_06_1700;iat_vr;60.060276493481425;
7;HERVORRAGEND;positiv;p;1;15;35;17;p;1;0.6676910999999564;001;NSGS90;2019_Dec_06_1700;iat_vr;60.060276493481425;
7;SCHWACH;negativ;q;1;16;36;14;q;1;0.8825000999997883;001;NSGS90;2019_Dec_06_1700;iat_vr;60.060276493481425;
7;BAUM;Natur;p;1;17;37;0;p;1;3.116429700000026;001;NSGS90;2019_Dec_06_1700;iat_vr;60.060276493481425;
7;EINWANDFREI;positiv;p;1;18;38;16;p;1;0.6611488999999438;001;NSGS90;2019_Dec_06_1700;iat_vr;60.060276493481425;
7;TIER;Natur;p;1;19;39;3;p;1;0.6687852000000021;001;NSGS90;2019_Dec_06_1700;iat_vr;60.060276493481425;
;;;;;;;;;;;001;NSGS90;2019_Dec_06_1700;iat_vr;60.060276493481425;
