Block;Word;Category;CorrResp;trials.thisRepN;trials.thisTrialN;trials.thisN;trials.thisIndex;key_resp_2.keys;key_resp_2.corr;key_resp_2.rt;session;participant;date;expName;frameRate;
1;COMPUTER;Gemacht;p;0;0;0;8;p;1;1.0603908000000501;001;NSIW98;2019_Dec_06_1235;iat_vr;60.12712075868373;
1;BLUME;Natur;q;0;1;1;2;q;1;0.625231900000017;001;NSIW98;2019_Dec_06_1235;iat_vr;60.12712075868373;
1;KLEIDER;Gemacht;p;0;2;2;7;p;1;1.3900928000000476;001;NSIW98;2019_Dec_06_1235;iat_vr;60.12712075868373;
1;GEBÄUDE;Gemacht;p;0;3;3;5;p;1;0.7724837000000662;001;NSIW98;2019_Dec_06_1235;iat_vr;60.12712075868373;
1;STEIN;Natur;q;0;4;4;4;q;1;0.9737938000000668;001;NSIW98;2019_Dec_06_1235;iat_vr;60.12712075868373;
1;TIER;Natur;q;0;5;5;3;q;1;1.3991550999999163;001;NSIW98;2019_Dec_06_1235;iat_vr;60.12712075868373;
1;LAMPE;Gemacht;p;0;6;6;9;p;1;0.6429553999998916;001;NSIW98;2019_Dec_06_1235;iat_vr;60.12712075868373;
1;STADT;Gemacht;p;0;7;7;6;p;1;1.4654639999998835;001;NSIW98;2019_Dec_06_1235;iat_vr;60.12712075868373;
1;WASSER;Natur;q;0;8;8;1;q;1;0.5947303999998894;001;NSIW98;2019_Dec_06_1235;iat_vr;60.12712075868373;
1;BAUM;Natur;q;0;9;9;0;q;1;0.5823147999999492;001;NSIW98;2019_Dec_06_1235;iat_vr;60.12712075868373;
1;TIER;Natur;q;1;0;10;3;p;0;0.9657205999999405;001;NSIW98;2019_Dec_06_1235;iat_vr;60.12712075868373;
1;LAMPE;Gemacht;p;1;1;11;9;p;1;2.380726599999889;001;NSIW98;2019_Dec_06_1235;iat_vr;60.12712075868373;
1;KLEIDER;Gemacht;p;1;2;12;7;p;1;0.7305618999998842;001;NSIW98;2019_Dec_06_1235;iat_vr;60.12712075868373;
1;BLUME;Natur;q;1;3;13;2;q;1;0.5975402999999915;001;NSIW98;2019_Dec_06_1235;iat_vr;60.12712075868373;
1;STADT;Gemacht;p;1;4;14;6;p;1;0.9127114000000347;001;NSIW98;2019_Dec_06_1235;iat_vr;60.12712075868373;
1;BAUM;Natur;q;1;5;15;0;q;1;0.7319572000001244;001;NSIW98;2019_Dec_06_1235;iat_vr;60.12712075868373;
1;STEIN;Natur;q;1;6;16;4;q;1;0.6713392999999996;001;NSIW98;2019_Dec_06_1235;iat_vr;60.12712075868373;
1;WASSER;Natur;q;1;7;17;1;q;1;0.7632873999998537;001;NSIW98;2019_Dec_06_1235;iat_vr;60.12712075868373;
1;GEBÄUDE;Gemacht;p;1;8;18;5;p;1;0.7633100000000468;001;NSIW98;2019_Dec_06_1235;iat_vr;60.12712075868373;
1;COMPUTER;Gemacht;p;1;9;19;8;p;1;0.6638915000000907;001;NSIW98;2019_Dec_06_1235;iat_vr;60.12712075868373;
;;;;;;;;;;;001;NSIW98;2019_Dec_06_1235;iat_vr;60.12712075868373;
2;SCHWACH;negativ;q;0;0;0;4;q;1;1.9347600999999486;001;NSIW98;2019_Dec_06_1235;iat_vr;60.12712075868373;
2;HERVORRAGEND;positiv;p;0;1;1;7;p;1;0.9715389999998933;001;NSIW98;2019_Dec_06_1235;iat_vr;60.12712075868373;
2;NEGATIV;negativ;q;0;2;2;2;q;1;0.9123396999998477;001;NSIW98;2019_Dec_06_1235;iat_vr;60.12712075868373;
2;POSITIV;positiv;p;0;3;3;8;p;1;0.6147919000000002;001;NSIW98;2019_Dec_06_1235;iat_vr;60.12712075868373;
2;SCHÄDLICH;negativ;q;0;4;4;3;q;1;0.9966319000000112;001;NSIW98;2019_Dec_06_1235;iat_vr;60.12712075868373;
2;SCHLIMM;negativ;q;0;5;5;0;q;1;0.7308400000001711;001;NSIW98;2019_Dec_06_1235;iat_vr;60.12712075868373;
2;GUT;positiv;p;0;6;6;9;p;1;0.6460764000000836;001;NSIW98;2019_Dec_06_1235;iat_vr;60.12712075868373;
2;EINWANDFREI;positiv;p;0;7;7;6;p;1;0.8604612999999972;001;NSIW98;2019_Dec_06_1235;iat_vr;60.12712075868373;
2;SCHLECHT;negativ;q;0;8;8;1;q;1;0.6464221999999609;001;NSIW98;2019_Dec_06_1235;iat_vr;60.12712075868373;
2;AUSGEZEICHNET;positiv;p;0;9;9;5;p;1;1.188446600000134;001;NSIW98;2019_Dec_06_1235;iat_vr;60.12712075868373;
2;SCHLECHT;negativ;q;1;0;10;1;q;1;0.580482899999879;001;NSIW98;2019_Dec_06_1235;iat_vr;60.12712075868373;
2;SCHÄDLICH;negativ;q;1;1;11;3;q;1;0.5970560999999179;001;NSIW98;2019_Dec_06_1235;iat_vr;60.12712075868373;
2;HERVORRAGEND;positiv;p;1;2;12;7;p;1;0.7282083000000057;001;NSIW98;2019_Dec_06_1235;iat_vr;60.12712075868373;
2;POSITIV;positiv;p;1;3;13;8;p;1;0.6779600999998365;001;NSIW98;2019_Dec_06_1235;iat_vr;60.12712075868373;
2;AUSGEZEICHNET;positiv;p;1;4;14;5;p;1;1.29487459999973;001;NSIW98;2019_Dec_06_1235;iat_vr;60.12712075868373;
2;SCHWACH;negativ;q;1;5;15;4;q;1;0.581533600000057;001;NSIW98;2019_Dec_06_1235;iat_vr;60.12712075868373;
2;SCHLIMM;negativ;q;1;6;16;0;q;1;0.598497099999804;001;NSIW98;2019_Dec_06_1235;iat_vr;60.12712075868373;
2;EINWANDFREI;positiv;p;1;7;17;6;p;1;0.6106765999998061;001;NSIW98;2019_Dec_06_1235;iat_vr;60.12712075868373;
2;NEGATIV;negativ;q;1;8;18;2;q;1;1.0978685000000041;001;NSIW98;2019_Dec_06_1235;iat_vr;60.12712075868373;
2;GUT;positiv;p;1;9;19;9;p;1;0.5318560999999136;001;NSIW98;2019_Dec_06_1235;iat_vr;60.12712075868373;
;;;;;;;;;;;001;NSIW98;2019_Dec_06_1235;iat_vr;60.12712075868373;
3;AUSGEZEICHNET;positiv;p;0;0;0;5;p;1;1.3121895999997832;001;NSIW98;2019_Dec_06_1235;iat_vr;60.12712075868373;
3;TIER;Natur;q;0;1;1;13;q;1;4.6153237999997145;001;NSIW98;2019_Dec_06_1235;iat_vr;60.12712075868373;
3;STADT;Gemacht;p;0;2;2;16;p;1;1.131546900000103;001;NSIW98;2019_Dec_06_1235;iat_vr;60.12712075868373;
3;GUT;positiv;p;0;3;3;9;p;1;0.9653403000002072;001;NSIW98;2019_Dec_06_1235;iat_vr;60.12712075868373;
3;HERVORRAGEND;positiv;p;0;4;4;7;p;1;1.0612605999999687;001;NSIW98;2019_Dec_06_1235;iat_vr;60.12712075868373;
3;EINWANDFREI;positiv;p;0;5;5;6;p;1;0.7569075000001249;001;NSIW98;2019_Dec_06_1235;iat_vr;60.12712075868373;
3;NEGATIV;negativ;q;0;6;6;2;q;1;0.6470774999997957;001;NSIW98;2019_Dec_06_1235;iat_vr;60.12712075868373;
3;SCHÄDLICH;negativ;q;0;7;7;3;q;1;1.3117340999997396;001;NSIW98;2019_Dec_06_1235;iat_vr;60.12712075868373;
3;POSITIV;positiv;p;0;8;8;8;p;1;0.5981127999998535;001;NSIW98;2019_Dec_06_1235;iat_vr;60.12712075868373;
3;SCHLECHT;negativ;q;0;9;9;1;q;1;0.5651714000000538;001;NSIW98;2019_Dec_06_1235;iat_vr;60.12712075868373;
3;SCHWACH;negativ;q;0;10;10;4;q;1;1.1639153999999508;001;NSIW98;2019_Dec_06_1235;iat_vr;60.12712075868373;
3;SCHLIMM;negativ;q;0;11;11;0;q;1;1.4772507000002406;001;NSIW98;2019_Dec_06_1235;iat_vr;60.12712075868373;
3;GEBÄUDE;Gemacht;p;0;12;12;15;p;1;1.3138722000003327;001;NSIW98;2019_Dec_06_1235;iat_vr;60.12712075868373;
3;BAUM;Natur;q;0;13;13;10;q;1;0.5764977999997427;001;NSIW98;2019_Dec_06_1235;iat_vr;60.12712075868373;
3;LAMPE;Gemacht;p;0;14;14;19;p;1;1.6801221999999143;001;NSIW98;2019_Dec_06_1235;iat_vr;60.12712075868373;
3;STEIN;Natur;q;0;15;15;14;q;1;0.596729900000355;001;NSIW98;2019_Dec_06_1235;iat_vr;60.12712075868373;
3;WASSER;Natur;q;0;16;16;11;q;1;0.573429600000054;001;NSIW98;2019_Dec_06_1235;iat_vr;60.12712075868373;
3;BLUME;Natur;q;0;17;17;12;q;1;0.5479283999998188;001;NSIW98;2019_Dec_06_1235;iat_vr;60.12712075868373;
3;KLEIDER;Gemacht;p;0;18;18;17;p;1;0.5628916000000572;001;NSIW98;2019_Dec_06_1235;iat_vr;60.12712075868373;
3;COMPUTER;Gemacht;p;0;19;19;18;p;1;0.7958808999997018;001;NSIW98;2019_Dec_06_1235;iat_vr;60.12712075868373;
;;;;;;;;;;;001;NSIW98;2019_Dec_06_1235;iat_vr;60.12712075868373;
4;HERVORRAGEND;positiv;p;0;0;0;7;p;1;0.7854889000000185;001;NSIW98;2019_Dec_06_1235;iat_vr;60.12712075868373;
4;GUT;positiv;p;0;1;1;9;p;1;0.5272177000001648;001;NSIW98;2019_Dec_06_1235;iat_vr;60.12712075868373;
4;AUSGEZEICHNET;positiv;p;0;2;2;5;p;1;0.7111339999996744;001;NSIW98;2019_Dec_06_1235;iat_vr;60.12712075868373;
4;COMPUTER;Gemacht;p;0;3;3;18;p;1;1.2639087000002291;001;NSIW98;2019_Dec_06_1235;iat_vr;60.12712075868373;
4;SCHWACH;negativ;q;0;4;4;4;q;1;0.6106522000000041;001;NSIW98;2019_Dec_06_1235;iat_vr;60.12712075868373;
4;EINWANDFREI;positiv;p;0;5;5;6;p;1;0.679141399999935;001;NSIW98;2019_Dec_06_1235;iat_vr;60.12712075868373;
4;SCHÄDLICH;negativ;q;0;6;6;3;q;1;0.8538241999999627;001;NSIW98;2019_Dec_06_1235;iat_vr;60.12712075868373;
4;BLUME;Natur;q;0;7;7;12;q;1;0.5540458000000399;001;NSIW98;2019_Dec_06_1235;iat_vr;60.12712075868373;
4;BAUM;Natur;q;0;8;8;10;q;1;0.517031599999882;001;NSIW98;2019_Dec_06_1235;iat_vr;60.12712075868373;
4;GEBÄUDE;Gemacht;p;0;9;9;15;p;1;0.6142785999995795;001;NSIW98;2019_Dec_06_1235;iat_vr;60.12712075868373;
4;SCHLIMM;negativ;q;0;10;10;0;q;1;0.597757300000012;001;NSIW98;2019_Dec_06_1235;iat_vr;60.12712075868373;
4;LAMPE;Gemacht;p;0;11;11;19;p;1;1.5816657999998824;001;NSIW98;2019_Dec_06_1235;iat_vr;60.12712075868373;
4;KLEIDER;Gemacht;p;0;12;12;17;p;1;0.612888699999985;001;NSIW98;2019_Dec_06_1235;iat_vr;60.12712075868373;
4;POSITIV;positiv;p;0;13;13;8;p;1;0.714377499999955;001;NSIW98;2019_Dec_06_1235;iat_vr;60.12712075868373;
4;STADT;Gemacht;p;0;14;14;16;p;1;1.5822555999998258;001;NSIW98;2019_Dec_06_1235;iat_vr;60.12712075868373;
4;SCHLECHT;negativ;q;0;15;15;1;q;1;0.7805247000001145;001;NSIW98;2019_Dec_06_1235;iat_vr;60.12712075868373;
4;WASSER;Natur;q;0;16;16;11;q;1;0.9171852000004037;001;NSIW98;2019_Dec_06_1235;iat_vr;60.12712075868373;
4;TIER;Natur;q;0;17;17;13;q;1;0.6817049000001134;001;NSIW98;2019_Dec_06_1235;iat_vr;60.12712075868373;
4;STEIN;Natur;q;0;18;18;14;q;1;0.929451699999845;001;NSIW98;2019_Dec_06_1235;iat_vr;60.12712075868373;
4;NEGATIV;negativ;q;0;19;19;2;q;1;1.346429199999875;001;NSIW98;2019_Dec_06_1235;iat_vr;60.12712075868373;
4;WASSER;Natur;q;1;0;20;11;q;1;0.7311919999997372;001;NSIW98;2019_Dec_06_1235;iat_vr;60.12712075868373;
4;NEGATIV;negativ;q;1;1;21;2;q;1;0.6485230999996929;001;NSIW98;2019_Dec_06_1235;iat_vr;60.12712075868373;
4;TIER;Natur;q;1;2;22;13;q;1;0.8488416000000143;001;NSIW98;2019_Dec_06_1235;iat_vr;60.12712075868373;
4;HERVORRAGEND;positiv;p;1;3;23;7;p;1;0.6784308000001147;001;NSIW98;2019_Dec_06_1235;iat_vr;60.12712075868373;
4;STEIN;Natur;q;1;4;24;14;q;1;0.6082169999999678;001;NSIW98;2019_Dec_06_1235;iat_vr;60.12712075868373;
4;SCHLIMM;negativ;q;1;5;25;0;q;1;1.1638904999999795;001;NSIW98;2019_Dec_06_1235;iat_vr;60.12712075868373;
4;LAMPE;Gemacht;p;1;6;26;19;p;1;0.5807549999999537;001;NSIW98;2019_Dec_06_1235;iat_vr;60.12712075868373;
4;POSITIV;positiv;p;1;7;27;8;p;1;0.7477389000000585;001;NSIW98;2019_Dec_06_1235;iat_vr;60.12712075868373;
4;KLEIDER;Gemacht;p;1;8;28;17;p;1;0.5805546000001414;001;NSIW98;2019_Dec_06_1235;iat_vr;60.12712075868373;
4;EINWANDFREI;positiv;p;1;9;29;6;p;1;1.1439382999997179;001;NSIW98;2019_Dec_06_1235;iat_vr;60.12712075868373;
4;GEBÄUDE;Gemacht;p;1;10;30;15;p;1;0.8979074999997465;001;NSIW98;2019_Dec_06_1235;iat_vr;60.12712075868373;
4;STADT;Gemacht;p;1;11;31;16;p;1;0.6637080000000424;001;NSIW98;2019_Dec_06_1235;iat_vr;60.12712075868373;
4;AUSGEZEICHNET;positiv;p;1;12;32;5;p;1;3.3114353000000847;001;NSIW98;2019_Dec_06_1235;iat_vr;60.12712075868373;
4;GUT;positiv;p;1;13;33;9;p;1;0.6322993999997379;001;NSIW98;2019_Dec_06_1235;iat_vr;60.12712075868373;
4;SCHÄDLICH;negativ;q;1;14;34;3;q;1;1.1305835000002844;001;NSIW98;2019_Dec_06_1235;iat_vr;60.12712075868373;
4;SCHLECHT;negativ;q;1;15;35;1;q;1;0.612141800000245;001;NSIW98;2019_Dec_06_1235;iat_vr;60.12712075868373;
4;BLUME;Natur;q;1;16;36;12;q;1;0.7979883000002701;001;NSIW98;2019_Dec_06_1235;iat_vr;60.12712075868373;
4;BAUM;Natur;q;1;17;37;10;q;1;0.34574890000021696;001;NSIW98;2019_Dec_06_1235;iat_vr;60.12712075868373;
4;COMPUTER;Gemacht;p;1;18;38;18;p;1;0.5457059000000299;001;NSIW98;2019_Dec_06_1235;iat_vr;60.12712075868373;
4;SCHWACH;negativ;q;1;19;39;4;q;1;0.6473093000004155;001;NSIW98;2019_Dec_06_1235;iat_vr;60.12712075868373;
;;;;;;;;;;;001;NSIW98;2019_Dec_06_1235;iat_vr;60.12712075868373;
5;COMPUTER;Gemacht;q;0;0;0;8;q;1;1.051089900000079;001;NSIW98;2019_Dec_06_1235;iat_vr;60.12712075868373;
5;KLEIDER;Gemacht;q;0;1;1;7;q;1;2.2461498000002393;001;NSIW98;2019_Dec_06_1235;iat_vr;60.12712075868373;
5;GEBÄUDE;Gemacht;q;0;2;2;5;q;1;0.8444346000001133;001;NSIW98;2019_Dec_06_1235;iat_vr;60.12712075868373;
5;WASSER;Natur;p;0;3;3;1;p;1;0.6069730000003801;001;NSIW98;2019_Dec_06_1235;iat_vr;60.12712075868373;
5;TIER;Natur;p;0;4;4;3;p;1;0.5173580999999103;001;NSIW98;2019_Dec_06_1235;iat_vr;60.12712075868373;
5;LAMPE;Gemacht;q;0;5;5;9;q;1;0.5335201000002598;001;NSIW98;2019_Dec_06_1235;iat_vr;60.12712075868373;
5;BLUME;Natur;p;0;6;6;2;p;1;0.4674144000000524;001;NSIW98;2019_Dec_06_1235;iat_vr;60.12712075868373;
5;STADT;Gemacht;q;0;7;7;6;q;1;0.7004925000001094;001;NSIW98;2019_Dec_06_1235;iat_vr;60.12712075868373;
5;BAUM;Natur;p;0;8;8;0;p;1;0.8526488999996218;001;NSIW98;2019_Dec_06_1235;iat_vr;60.12712075868373;
5;STEIN;Natur;p;0;9;9;4;p;1;0.5801501000000826;001;NSIW98;2019_Dec_06_1235;iat_vr;60.12712075868373;
5;GEBÄUDE;Gemacht;q;1;0;10;5;q;1;0.5970604999997704;001;NSIW98;2019_Dec_06_1235;iat_vr;60.12712075868373;
5;BLUME;Natur;p;1;1;11;2;p;1;0.6971021999997902;001;NSIW98;2019_Dec_06_1235;iat_vr;60.12712075868373;
5;LAMPE;Gemacht;q;1;2;12;9;q;1;0.9973452000003817;001;NSIW98;2019_Dec_06_1235;iat_vr;60.12712075868373;
5;TIER;Natur;p;1;3;13;3;p;1;0.5818912999998247;001;NSIW98;2019_Dec_06_1235;iat_vr;60.12712075868373;
5;STADT;Gemacht;q;1;4;14;6;q;1;0.64736240000002;001;NSIW98;2019_Dec_06_1235;iat_vr;60.12712075868373;
5;COMPUTER;Gemacht;q;1;5;15;8;q;1;0.7949665999999525;001;NSIW98;2019_Dec_06_1235;iat_vr;60.12712075868373;
5;STEIN;Natur;p;1;6;16;4;p;1;0.6305352999997922;001;NSIW98;2019_Dec_06_1235;iat_vr;60.12712075868373;
5;BAUM;Natur;p;1;7;17;0;p;1;0.6651244999998198;001;NSIW98;2019_Dec_06_1235;iat_vr;60.12712075868373;
5;KLEIDER;Gemacht;q;1;8;18;7;q;1;0.9268843999998353;001;NSIW98;2019_Dec_06_1235;iat_vr;60.12712075868373;
5;WASSER;Natur;p;1;9;19;1;p;1;0.6275820999999269;001;NSIW98;2019_Dec_06_1235;iat_vr;60.12712075868373;
;;;;;;;;;;;001;NSIW98;2019_Dec_06_1235;iat_vr;60.12712075868373;
6;GUT;positiv;p;0;0;0;19;p;1;1.5494592000000011;001;NSIW98;2019_Dec_06_1235;iat_vr;60.12712075868373;
6;STADT;Gemacht;q;0;1;1;6;q;1;1.0656190999998216;001;NSIW98;2019_Dec_06_1235;iat_vr;60.12712075868373;
6;BLUME;Natur;p;0;2;2;2;p;1;1.8808376000001772;001;NSIW98;2019_Dec_06_1235;iat_vr;60.12712075868373;
6;WASSER;Natur;p;0;3;3;1;p;1;1.4149320000001353;001;NSIW98;2019_Dec_06_1235;iat_vr;60.12712075868373;
6;SCHLECHT;negativ;q;0;4;4;11;q;1;1.7774563000002672;001;NSIW98;2019_Dec_06_1235;iat_vr;60.12712075868373;
6;TIER;Natur;p;0;5;5;3;p;1;3.4818018000000848;001;NSIW98;2019_Dec_06_1235;iat_vr;60.12712075868373;
6;SCHWACH;negativ;q;0;6;6;14;q;1;1.1139541000002282;001;NSIW98;2019_Dec_06_1235;iat_vr;60.12712075868373;
6;KLEIDER;Gemacht;q;0;7;7;7;q;1;1.972570099999757;001;NSIW98;2019_Dec_06_1235;iat_vr;60.12712075868373;
6;GEBÄUDE;Gemacht;q;0;8;8;5;q;1;1.079663200000141;001;NSIW98;2019_Dec_06_1235;iat_vr;60.12712075868373;
6;STEIN;Natur;p;0;9;9;4;p;1;0.6286344999998619;001;NSIW98;2019_Dec_06_1235;iat_vr;60.12712075868373;
6;HERVORRAGEND;positiv;p;0;10;10;17;p;1;0.6599724000002425;001;NSIW98;2019_Dec_06_1235;iat_vr;60.12712075868373;
6;COMPUTER;Gemacht;q;0;11;11;8;q;1;3.094742700000097;001;NSIW98;2019_Dec_06_1235;iat_vr;60.12712075868373;
6;SCHLIMM;negativ;q;0;12;12;10;q;1;0.6149401000002399;001;NSIW98;2019_Dec_06_1235;iat_vr;60.12712075868373;
6;SCHÄDLICH;negativ;q;0;13;13;13;q;1;0.7436333000000559;001;NSIW98;2019_Dec_06_1235;iat_vr;60.12712075868373;
6;EINWANDFREI;positiv;p;0;14;14;16;p;1;0.6451917999997931;001;NSIW98;2019_Dec_06_1235;iat_vr;60.12712075868373;
6;BAUM;Natur;p;0;15;15;0;p;1;0.9157949999998891;001;NSIW98;2019_Dec_06_1235;iat_vr;60.12712075868373;
6;POSITIV;positiv;p;0;16;16;18;p;1;1.0783215999999811;001;NSIW98;2019_Dec_06_1235;iat_vr;60.12712075868373;
6;LAMPE;Gemacht;q;0;17;17;9;q;1;0.6820993000001181;001;NSIW98;2019_Dec_06_1235;iat_vr;60.12712075868373;
6;NEGATIV;negativ;q;0;18;18;12;q;1;0.7803610999999364;001;NSIW98;2019_Dec_06_1235;iat_vr;60.12712075868373;
6;AUSGEZEICHNET;positiv;p;0;19;19;15;p;1;1.0778375999998389;001;NSIW98;2019_Dec_06_1235;iat_vr;60.12712075868373;
;;;;;;;;;;;001;NSIW98;2019_Dec_06_1235;iat_vr;60.12712075868373;
7;TIER;Natur;p;0;0;0;3;p;1;1.0203473999999915;001;NSIW98;2019_Dec_06_1235;iat_vr;60.12712075868373;
7;GEBÄUDE;Gemacht;q;0;1;1;5;q;1;0.7637004000002889;001;NSIW98;2019_Dec_06_1235;iat_vr;60.12712075868373;
7;AUSGEZEICHNET;positiv;p;0;2;2;15;p;1;0.9289970999998332;001;NSIW98;2019_Dec_06_1235;iat_vr;60.12712075868373;
7;GUT;positiv;p;0;3;3;19;p;1;0.6657242999999653;001;NSIW98;2019_Dec_06_1235;iat_vr;60.12712075868373;
7;NEGATIV;negativ;q;0;4;4;12;q;1;0.6300873000000138;001;NSIW98;2019_Dec_06_1235;iat_vr;60.12712075868373;
7;POSITIV;positiv;p;0;5;5;18;p;1;0.7078514999998333;001;NSIW98;2019_Dec_06_1235;iat_vr;60.12712075868373;
7;SCHLECHT;negativ;q;0;6;6;11;q;1;0.6976553999998032;001;NSIW98;2019_Dec_06_1235;iat_vr;60.12712075868373;
7;KLEIDER;Gemacht;q;0;7;7;7;q;1;0.5643786999999065;001;NSIW98;2019_Dec_06_1235;iat_vr;60.12712075868373;
7;EINWANDFREI;positiv;p;0;8;8;16;p;1;0.9137043000000631;001;NSIW98;2019_Dec_06_1235;iat_vr;60.12712075868373;
7;SCHLIMM;negativ;q;0;9;9;10;q;1;0.5638976999998704;001;NSIW98;2019_Dec_06_1235;iat_vr;60.12712075868373;
7;HERVORRAGEND;positiv;p;0;10;10;17;p;1;0.6939370000000054;001;NSIW98;2019_Dec_06_1235;iat_vr;60.12712075868373;
7;COMPUTER;Gemacht;q;0;11;11;8;q;1;1.3292582000003677;001;NSIW98;2019_Dec_06_1235;iat_vr;60.12712075868373;
7;SCHWACH;negativ;q;0;12;12;14;q;1;0.5635412999999971;001;NSIW98;2019_Dec_06_1235;iat_vr;60.12712075868373;
7;STADT;Gemacht;q;0;13;13;6;q;1;0.5488537000001088;001;NSIW98;2019_Dec_06_1235;iat_vr;60.12712075868373;
7;STEIN;Natur;p;0;14;14;4;p;1;0.5488475000001927;001;NSIW98;2019_Dec_06_1235;iat_vr;60.12712075868373;
7;SCHÄDLICH;negativ;q;0;15;15;13;q;1;0.9123786000000109;001;NSIW98;2019_Dec_06_1235;iat_vr;60.12712075868373;
7;WASSER;Natur;p;0;16;16;1;p;1;0.6977334000002884;001;NSIW98;2019_Dec_06_1235;iat_vr;60.12712075868373;
7;BAUM;Natur;p;0;17;17;0;p;1;0.779482200000075;001;NSIW98;2019_Dec_06_1235;iat_vr;60.12712075868373;
7;LAMPE;Gemacht;q;0;18;18;9;q;1;0.6810209999998733;001;NSIW98;2019_Dec_06_1235;iat_vr;60.12712075868373;
7;BLUME;Natur;p;0;19;19;2;p;1;0.498591700000361;001;NSIW98;2019_Dec_06_1235;iat_vr;60.12712075868373;
7;SCHLIMM;negativ;q;1;0;20;10;q;1;0.5142114999998739;001;NSIW98;2019_Dec_06_1235;iat_vr;60.12712075868373;
7;KLEIDER;Gemacht;q;1;1;21;7;p;0;0.34770869999965726;001;NSIW98;2019_Dec_06_1235;iat_vr;60.12712075868373;
7;LAMPE;Gemacht;q;1;2;22;9;q;1;0.8153514999999061;001;NSIW98;2019_Dec_06_1235;iat_vr;60.12712075868373;
7;SCHLECHT;negativ;q;1;3;23;11;q;1;3.5305747000002157;001;NSIW98;2019_Dec_06_1235;iat_vr;60.12712075868373;
7;COMPUTER;Gemacht;q;1;4;24;8;q;1;0.5465561999999409;001;NSIW98;2019_Dec_06_1235;iat_vr;60.12712075868373;
7;AUSGEZEICHNET;positiv;p;1;5;25;15;p;1;0.7274551000000429;001;NSIW98;2019_Dec_06_1235;iat_vr;60.12712075868373;
7;POSITIV;positiv;p;1;6;26;18;p;1;1.1636727000000064;001;NSIW98;2019_Dec_06_1235;iat_vr;60.12712075868373;
7;HERVORRAGEND;positiv;p;1;7;27;17;p;1;2.0279688000000533;001;NSIW98;2019_Dec_06_1235;iat_vr;60.12712075868373;
7;EINWANDFREI;positiv;p;1;8;28;16;p;1;0.6279871000001549;001;NSIW98;2019_Dec_06_1235;iat_vr;60.12712075868373;
7;BAUM;Natur;p;1;9;29;0;p;1;0.49819479999996474;001;NSIW98;2019_Dec_06_1235;iat_vr;60.12712075868373;
7;SCHÄDLICH;negativ;q;1;10;30;13;p;0;0.7126039999998284;001;NSIW98;2019_Dec_06_1235;iat_vr;60.12712075868373;
7;GEBÄUDE;Gemacht;q;1;11;31;5;q;1;0.3314040999998724;001;NSIW98;2019_Dec_06_1235;iat_vr;60.12712075868373;
7;BLUME;Natur;p;1;12;32;2;p;1;4.383885299999747;001;NSIW98;2019_Dec_06_1235;iat_vr;60.12712075868373;
7;SCHWACH;negativ;q;1;13;33;14;q;1;0.8487183000002005;001;NSIW98;2019_Dec_06_1235;iat_vr;60.12712075868373;
7;TIER;Natur;p;1;14;34;3;p;1;1.131154599999718;001;NSIW98;2019_Dec_06_1235;iat_vr;60.12712075868373;
7;STEIN;Natur;p;1;15;35;4;p;1;0.5643438000001879;001;NSIW98;2019_Dec_06_1235;iat_vr;60.12712075868373;
7;NEGATIV;negativ;q;1;16;36;12;q;1;0.7306791000000885;001;NSIW98;2019_Dec_06_1235;iat_vr;60.12712075868373;
7;STADT;Gemacht;q;1;17;37;6;q;1;1.031583700000283;001;NSIW98;2019_Dec_06_1235;iat_vr;60.12712075868373;
7;WASSER;Natur;p;1;18;38;1;p;1;1.3809477999998307;001;NSIW98;2019_Dec_06_1235;iat_vr;60.12712075868373;
7;GUT;positiv;p;1;19;39;19;p;1;0.4949071000000913;001;NSIW98;2019_Dec_06_1235;iat_vr;60.12712075868373;
;;;;;;;;;;;001;NSIW98;2019_Dec_06_1235;iat_vr;60.12712075868373;
