Block;Word;Category;CorrResp;trials.thisRepN;trials.thisTrialN;trials.thisN;trials.thisIndex;key_resp_2.keys;key_resp_2.corr;key_resp_2.rt;session;participant;date;expName;frameRate;
1;WASSER;Natur;q;0;0;0;1;q;1;0.8964887999973143;002;NSLR97;2019_Dec_05_1954;iat_vr;59.41202297212738;
1;STEIN;Natur;q;0;1;1;4;q;1;1.1047808999937843;002;NSLR97;2019_Dec_05_1954;iat_vr;59.41202297212738;
1;TIER;Natur;q;0;2;2;3;q;1;0.8326563000009628;002;NSLR97;2019_Dec_05_1954;iat_vr;59.41202297212738;
1;BAUM;Natur;q;0;3;3;0;q;1;0.617661299998872;002;NSLR97;2019_Dec_05_1954;iat_vr;59.41202297212738;
1;GEBÄUDE;Gemacht;p;0;4;4;5;p;1;0.7178405000013299;002;NSLR97;2019_Dec_05_1954;iat_vr;59.41202297212738;
1;KLEIDER;Gemacht;p;0;5;5;7;p;1;0.6645978999949875;002;NSLR97;2019_Dec_05_1954;iat_vr;59.41202297212738;
1;STADT;Gemacht;p;0;6;6;6;q;0;0.6311721000020043;002;NSLR97;2019_Dec_05_1954;iat_vr;59.41202297212738;
1;BLUME;Natur;q;0;7;7;2;q;1;0.7819684999994934;002;NSLR97;2019_Dec_05_1954;iat_vr;59.41202297212738;
1;LAMPE;Gemacht;p;0;8;8;9;p;1;0.661152900000161;002;NSLR97;2019_Dec_05_1954;iat_vr;59.41202297212738;
1;COMPUTER;Gemacht;p;0;9;9;8;p;1;0.5963476999968407;002;NSLR97;2019_Dec_05_1954;iat_vr;59.41202297212738;
1;LAMPE;Gemacht;p;1;0;10;9;p;1;0.7305066999979317;002;NSLR97;2019_Dec_05_1954;iat_vr;59.41202297212738;
1;BAUM;Natur;q;1;1;11;0;q;1;0.6296650000003865;002;NSLR97;2019_Dec_05_1954;iat_vr;59.41202297212738;
1;TIER;Natur;q;1;2;12;3;q;1;0.6184333999990486;002;NSLR97;2019_Dec_05_1954;iat_vr;59.41202297212738;
1;WASSER;Natur;q;1;3;13;1;q;1;0.5020842000012635;002;NSLR97;2019_Dec_05_1954;iat_vr;59.41202297212738;
1;GEBÄUDE;Gemacht;p;1;4;14;5;p;1;0.5956589999987045;002;NSLR97;2019_Dec_05_1954;iat_vr;59.41202297212738;
1;BLUME;Natur;q;1;5;15;2;q;1;0.6471939999973984;002;NSLR97;2019_Dec_05_1954;iat_vr;59.41202297212738;
1;KLEIDER;Gemacht;p;1;6;16;7;p;1;0.7488846999985981;002;NSLR97;2019_Dec_05_1954;iat_vr;59.41202297212738;
1;COMPUTER;Gemacht;p;1;7;17;8;p;1;0.6021342999956687;002;NSLR97;2019_Dec_05_1954;iat_vr;59.41202297212738;
1;STEIN;Natur;q;1;8;18;4;q;1;0.8149583999984316;002;NSLR97;2019_Dec_05_1954;iat_vr;59.41202297212738;
1;STADT;Gemacht;p;1;9;19;6;p;1;0.7485672000038903;002;NSLR97;2019_Dec_05_1954;iat_vr;59.41202297212738;
;;;;;;;;;;;002;NSLR97;2019_Dec_05_1954;iat_vr;59.41202297212738;
2;AUSGEZEICHNET;positiv;p;0;0;0;5;p;1;0.8578009999982896;002;NSLR97;2019_Dec_05_1954;iat_vr;59.41202297212738;
2;GUT;positiv;p;0;1;1;9;p;1;0.43228459999954794;002;NSLR97;2019_Dec_05_1954;iat_vr;59.41202297212738;
2;EINWANDFREI;positiv;p;0;2;2;6;p;1;0.6171667000016896;002;NSLR97;2019_Dec_05_1954;iat_vr;59.41202297212738;
2;HERVORRAGEND;positiv;p;0;3;3;7;p;1;0.6523105999949621;002;NSLR97;2019_Dec_05_1954;iat_vr;59.41202297212738;
2;SCHLECHT;negativ;q;0;4;4;1;q;1;0.6145269999979064;002;NSLR97;2019_Dec_05_1954;iat_vr;59.41202297212738;
2;SCHLIMM;negativ;q;0;5;5;0;q;1;0.5980264999961946;002;NSLR97;2019_Dec_05_1954;iat_vr;59.41202297212738;
2;SCHWACH;negativ;q;0;6;6;4;q;1;0.4836506999999983;002;NSLR97;2019_Dec_05_1954;iat_vr;59.41202297212738;
2;NEGATIV;negativ;q;0;7;7;2;q;1;0.7139472000053502;002;NSLR97;2019_Dec_05_1954;iat_vr;59.41202297212738;
2;POSITIV;positiv;p;0;8;8;8;p;1;0.7009265000015148;002;NSLR97;2019_Dec_05_1954;iat_vr;59.41202297212738;
2;SCHÄDLICH;negativ;q;0;9;9;3;q;1;0.8473700000031386;002;NSLR97;2019_Dec_05_1954;iat_vr;59.41202297212738;
2;SCHÄDLICH;negativ;q;1;0;10;3;q;1;0.6510342999972636;002;NSLR97;2019_Dec_05_1954;iat_vr;59.41202297212738;
2;POSITIV;positiv;p;1;1;11;8;p;1;0.6478428999980679;002;NSLR97;2019_Dec_05_1954;iat_vr;59.41202297212738;
2;EINWANDFREI;positiv;p;1;2;12;6;p;1;0.7928020999970613;002;NSLR97;2019_Dec_05_1954;iat_vr;59.41202297212738;
2;HERVORRAGEND;positiv;p;1;3;13;7;p;1;0.500511500002176;002;NSLR97;2019_Dec_05_1954;iat_vr;59.41202297212738;
2;SCHWACH;negativ;q;1;4;14;4;q;1;0.6861013000016101;002;NSLR97;2019_Dec_05_1954;iat_vr;59.41202297212738;
2;SCHLECHT;negativ;q;1;5;15;1;q;1;0.6959687999988091;002;NSLR97;2019_Dec_05_1954;iat_vr;59.41202297212738;
2;AUSGEZEICHNET;positiv;p;1;6;16;5;p;1;0.8457395000004908;002;NSLR97;2019_Dec_05_1954;iat_vr;59.41202297212738;
2;GUT;positiv;p;1;7;17;9;p;1;0.7139135000034003;002;NSLR97;2019_Dec_05_1954;iat_vr;59.41202297212738;
2;SCHLIMM;negativ;q;1;8;18;0;q;1;0.7995799999989686;002;NSLR97;2019_Dec_05_1954;iat_vr;59.41202297212738;
2;NEGATIV;negativ;q;1;9;19;2;q;1;1.346861900005024;002;NSLR97;2019_Dec_05_1954;iat_vr;59.41202297212738;
;;;;;;;;;;;002;NSLR97;2019_Dec_05_1954;iat_vr;59.41202297212738;
3;BAUM;Natur;q;0;0;0;10;q;1;2.159583599997859;002;NSLR97;2019_Dec_05_1954;iat_vr;59.41202297212738;
3;BLUME;Natur;q;0;1;1;12;q;1;0.7145660000023781;002;NSLR97;2019_Dec_05_1954;iat_vr;59.41202297212738;
3;SCHLIMM;negativ;q;0;2;2;0;q;1;0.6805196999994223;002;NSLR97;2019_Dec_05_1954;iat_vr;59.41202297212738;
3;POSITIV;positiv;p;0;3;3;8;p;1;0.6972004999988712;002;NSLR97;2019_Dec_05_1954;iat_vr;59.41202297212738;
3;LAMPE;Gemacht;p;0;4;4;19;p;1;0.5307832000034978;002;NSLR97;2019_Dec_05_1954;iat_vr;59.41202297212738;
3;GUT;positiv;p;0;5;5;9;p;1;0.6006257999979425;002;NSLR97;2019_Dec_05_1954;iat_vr;59.41202297212738;
3;TIER;Natur;q;0;6;6;13;q;1;0.6509664000041084;002;NSLR97;2019_Dec_05_1954;iat_vr;59.41202297212738;
3;GEBÄUDE;Gemacht;p;0;7;7;15;p;1;0.5312483999950928;002;NSLR97;2019_Dec_05_1954;iat_vr;59.41202297212738;
3;KLEIDER;Gemacht;p;0;8;8;17;p;1;0.5689077999995789;002;NSLR97;2019_Dec_05_1954;iat_vr;59.41202297212738;
3;STEIN;Natur;q;0;9;9;14;q;1;0.5802765999978874;002;NSLR97;2019_Dec_05_1954;iat_vr;59.41202297212738;
3;SCHWACH;negativ;q;0;10;10;4;q;1;0.6334376000013435;002;NSLR97;2019_Dec_05_1954;iat_vr;59.41202297212738;
3;HERVORRAGEND;positiv;p;0;11;11;7;p;1;0.5958189999946626;002;NSLR97;2019_Dec_05_1954;iat_vr;59.41202297212738;
3;COMPUTER;Gemacht;p;0;12;12;18;p;1;0.5963013000000501;002;NSLR97;2019_Dec_05_1954;iat_vr;59.41202297212738;
3;SCHÄDLICH;negativ;q;0;13;13;3;q;1;1.2806587000013678;002;NSLR97;2019_Dec_05_1954;iat_vr;59.41202297212738;
3;STADT;Gemacht;p;0;14;14;16;p;1;0.6812444000024698;002;NSLR97;2019_Dec_05_1954;iat_vr;59.41202297212738;
3;EINWANDFREI;positiv;p;0;15;15;6;p;1;0.8290167000013753;002;NSLR97;2019_Dec_05_1954;iat_vr;59.41202297212738;
3;NEGATIV;negativ;q;0;16;16;2;q;1;0.8632078000009642;002;NSLR97;2019_Dec_05_1954;iat_vr;59.41202297212738;
3;AUSGEZEICHNET;positiv;p;0;17;17;5;q;0;0.6280077999981586;002;NSLR97;2019_Dec_05_1954;iat_vr;59.41202297212738;
3;SCHLECHT;negativ;q;0;18;18;1;p;0;0.36449619999621063;002;NSLR97;2019_Dec_05_1954;iat_vr;59.41202297212738;
3;WASSER;Natur;q;0;19;19;11;q;1;1.0181641000017407;002;NSLR97;2019_Dec_05_1954;iat_vr;59.41202297212738;
;;;;;;;;;;;002;NSLR97;2019_Dec_05_1954;iat_vr;59.41202297212738;
4;POSITIV;positiv;p;0;0;0;8;p;1;0.7856583000029786;002;NSLR97;2019_Dec_05_1954;iat_vr;59.41202297212738;
4;COMPUTER;Gemacht;p;0;1;1;18;p;1;0.5814424999989569;002;NSLR97;2019_Dec_05_1954;iat_vr;59.41202297212738;
4;SCHLECHT;negativ;q;0;2;2;1;q;1;0.8313580000030925;002;NSLR97;2019_Dec_05_1954;iat_vr;59.41202297212738;
4;EINWANDFREI;positiv;p;0;3;3;6;p;1;0.8161566999988281;002;NSLR97;2019_Dec_05_1954;iat_vr;59.41202297212738;
4;BLUME;Natur;q;0;4;4;12;p;0;0.5025753999943845;002;NSLR97;2019_Dec_05_1954;iat_vr;59.41202297212738;
4;TIER;Natur;q;0;5;5;13;q;1;0.8182673000046634;002;NSLR97;2019_Dec_05_1954;iat_vr;59.41202297212738;
4;STEIN;Natur;q;0;6;6;14;q;1;0.596051799999259;002;NSLR97;2019_Dec_05_1954;iat_vr;59.41202297212738;
4;AUSGEZEICHNET;positiv;p;0;7;7;5;p;1;0.6437925999998697;002;NSLR97;2019_Dec_05_1954;iat_vr;59.41202297212738;
4;SCHÄDLICH;negativ;q;0;8;8;3;q;1;1.1168965000033495;002;NSLR97;2019_Dec_05_1954;iat_vr;59.41202297212738;
4;BAUM;Natur;q;0;9;9;10;q;1;0.6320450999992318;002;NSLR97;2019_Dec_05_1954;iat_vr;59.41202297212738;
4;SCHLIMM;negativ;q;0;10;10;0;q;1;0.7684245999989798;002;NSLR97;2019_Dec_05_1954;iat_vr;59.41202297212738;
4;LAMPE;Gemacht;p;0;11;11;19;p;1;0.6675614999985555;002;NSLR97;2019_Dec_05_1954;iat_vr;59.41202297212738;
4;GEBÄUDE;Gemacht;p;0;12;12;15;p;1;0.5801372999994783;002;NSLR97;2019_Dec_05_1954;iat_vr;59.41202297212738;
4;KLEIDER;Gemacht;p;0;13;13;17;p;1;0.5961895000000368;002;NSLR97;2019_Dec_05_1954;iat_vr;59.41202297212738;
4;GUT;positiv;p;0;14;14;9;q;0;0.7997684000001755;002;NSLR97;2019_Dec_05_1954;iat_vr;59.41202297212738;
4;STADT;Gemacht;p;0;15;15;16;p;1;1.101238099996408;002;NSLR97;2019_Dec_05_1954;iat_vr;59.41202297212738;
4;WASSER;Natur;q;0;16;16;11;p;0;0.6842487000030815;002;NSLR97;2019_Dec_05_1954;iat_vr;59.41202297212738;
4;HERVORRAGEND;positiv;p;0;17;17;7;p;1;0.908342900002026;002;NSLR97;2019_Dec_05_1954;iat_vr;59.41202297212738;
4;NEGATIV;negativ;q;0;18;18;2;q;1;1.7951133999958984;002;NSLR97;2019_Dec_05_1954;iat_vr;59.41202297212738;
4;SCHWACH;negativ;q;0;19;19;4;q;1;0.5790059999999357;002;NSLR97;2019_Dec_05_1954;iat_vr;59.41202297212738;
4;WASSER;Natur;q;1;0;20;11;q;1;0.6463090000033844;002;NSLR97;2019_Dec_05_1954;iat_vr;59.41202297212738;
4;LAMPE;Gemacht;p;1;1;21;19;p;1;0.6310958999965806;002;NSLR97;2019_Dec_05_1954;iat_vr;59.41202297212738;
4;AUSGEZEICHNET;positiv;p;1;2;22;5;p;1;1.3854887999987113;002;NSLR97;2019_Dec_05_1954;iat_vr;59.41202297212738;
4;GEBÄUDE;Gemacht;p;1;3;23;15;p;1;0.914730899996357;002;NSLR97;2019_Dec_05_1954;iat_vr;59.41202297212738;
4;TIER;Natur;q;1;4;24;13;q;1;0.7664194000026328;002;NSLR97;2019_Dec_05_1954;iat_vr;59.41202297212738;
4;KLEIDER;Gemacht;p;1;5;25;17;p;1;0.7614127999986522;002;NSLR97;2019_Dec_05_1954;iat_vr;59.41202297212738;
4;STADT;Gemacht;p;1;6;26;16;p;1;0.6680149999956484;002;NSLR97;2019_Dec_05_1954;iat_vr;59.41202297212738;
4;HERVORRAGEND;positiv;p;1;7;27;7;p;1;0.5442874000000302;002;NSLR97;2019_Dec_05_1954;iat_vr;59.41202297212738;
4;COMPUTER;Gemacht;p;1;8;28;18;p;1;0.6451356999968993;002;NSLR97;2019_Dec_05_1954;iat_vr;59.41202297212738;
4;GUT;positiv;p;1;9;29;9;p;1;0.44713639999827137;002;NSLR97;2019_Dec_05_1954;iat_vr;59.41202297212738;
4;BAUM;Natur;q;1;10;30;10;p;0;0.8011070000065956;002;NSLR97;2019_Dec_05_1954;iat_vr;59.41202297212738;
4;SCHÄDLICH;negativ;q;1;11;31;3;q;1;1.133990399997856;002;NSLR97;2019_Dec_05_1954;iat_vr;59.41202297212738;
4;NEGATIV;negativ;q;1;12;32;2;q;1;1.650359599996591;002;NSLR97;2019_Dec_05_1954;iat_vr;59.41202297212738;
4;SCHLIMM;negativ;q;1;13;33;0;q;1;0.5491779999938444;002;NSLR97;2019_Dec_05_1954;iat_vr;59.41202297212738;
4;SCHWACH;negativ;q;1;14;34;4;q;1;0.43084169999929145;002;NSLR97;2019_Dec_05_1954;iat_vr;59.41202297212738;
4;STEIN;Natur;q;1;15;35;14;q;1;0.569624499999918;002;NSLR97;2019_Dec_05_1954;iat_vr;59.41202297212738;
4;SCHLECHT;negativ;q;1;16;36;1;q;1;0.7693906000058632;002;NSLR97;2019_Dec_05_1954;iat_vr;59.41202297212738;
4;BLUME;Natur;q;1;17;37;12;q;1;0.6112199999988661;002;NSLR97;2019_Dec_05_1954;iat_vr;59.41202297212738;
4;POSITIV;positiv;p;1;18;38;8;p;1;0.9976543000011588;002;NSLR97;2019_Dec_05_1954;iat_vr;59.41202297212738;
4;EINWANDFREI;positiv;p;1;19;39;6;p;1;0.7768605000019306;002;NSLR97;2019_Dec_05_1954;iat_vr;59.41202297212738;
;;;;;;;;;;;002;NSLR97;2019_Dec_05_1954;iat_vr;59.41202297212738;
5;STADT;Gemacht;q;0;0;0;6;q;1;3.0957334999984596;002;NSLR97;2019_Dec_05_1954;iat_vr;59.41202297212738;
5;WASSER;Natur;p;0;1;1;1;p;1;0.7813937999962945;002;NSLR97;2019_Dec_05_1954;iat_vr;59.41202297212738;
5;COMPUTER;Gemacht;q;0;2;2;8;q;1;1.0291853000017;002;NSLR97;2019_Dec_05_1954;iat_vr;59.41202297212738;
5;LAMPE;Gemacht;q;0;3;3;9;q;1;0.7821423999994295;002;NSLR97;2019_Dec_05_1954;iat_vr;59.41202297212738;
5;BAUM;Natur;p;0;4;4;0;p;1;1.0343873000019812;002;NSLR97;2019_Dec_05_1954;iat_vr;59.41202297212738;
5;TIER;Natur;p;0;5;5;3;p;1;0.5466588000053889;002;NSLR97;2019_Dec_05_1954;iat_vr;59.41202297212738;
5;STEIN;Natur;p;0;6;6;4;p;1;0.38158069999917643;002;NSLR97;2019_Dec_05_1954;iat_vr;59.41202297212738;
5;BLUME;Natur;p;0;7;7;2;p;1;0.4312248999995063;002;NSLR97;2019_Dec_05_1954;iat_vr;59.41202297212738;
5;KLEIDER;Gemacht;q;0;8;8;7;q;1;0.8301894999967772;002;NSLR97;2019_Dec_05_1954;iat_vr;59.41202297212738;
5;GEBÄUDE;Gemacht;q;0;9;9;5;q;1;0.9479792000056477;002;NSLR97;2019_Dec_05_1954;iat_vr;59.41202297212738;
5;TIER;Natur;p;1;0;10;3;p;1;0.614197900002182;002;NSLR97;2019_Dec_05_1954;iat_vr;59.41202297212738;
5;WASSER;Natur;p;1;1;11;1;p;1;1.1174986000041827;002;NSLR97;2019_Dec_05_1954;iat_vr;59.41202297212738;
5;STEIN;Natur;p;1;2;12;4;p;1;0.7643622000032337;002;NSLR97;2019_Dec_05_1954;iat_vr;59.41202297212738;
5;LAMPE;Gemacht;q;1;3;13;9;q;1;0.6643726999973296;002;NSLR97;2019_Dec_05_1954;iat_vr;59.41202297212738;
5;STADT;Gemacht;q;1;4;14;6;q;1;1.278814400000556;002;NSLR97;2019_Dec_05_1954;iat_vr;59.41202297212738;
5;BAUM;Natur;p;1;5;15;0;p;1;0.6839906000022893;002;NSLR97;2019_Dec_05_1954;iat_vr;59.41202297212738;
5;BLUME;Natur;p;1;6;16;2;p;1;0.534525000002759;002;NSLR97;2019_Dec_05_1954;iat_vr;59.41202297212738;
5;COMPUTER;Gemacht;q;1;7;17;8;q;1;0.7462832999954117;002;NSLR97;2019_Dec_05_1954;iat_vr;59.41202297212738;
5;KLEIDER;Gemacht;q;1;8;18;7;q;1;0.7314992000028724;002;NSLR97;2019_Dec_05_1954;iat_vr;59.41202297212738;
5;GEBÄUDE;Gemacht;q;1;9;19;5;q;1;0.6815849000049639;002;NSLR97;2019_Dec_05_1954;iat_vr;59.41202297212738;
;;;;;;;;;;;002;NSLR97;2019_Dec_05_1954;iat_vr;59.41202297212738;
6;STEIN;Natur;p;0;0;0;4;p;1;0.8174640999932308;002;NSLR97;2019_Dec_05_1954;iat_vr;59.41202297212738;
6;SCHÄDLICH;negativ;q;0;1;1;13;q;1;0.7612203999960911;002;NSLR97;2019_Dec_05_1954;iat_vr;59.41202297212738;
6;HERVORRAGEND;positiv;p;0;2;2;17;p;1;0.8188158999982988;002;NSLR97;2019_Dec_05_1954;iat_vr;59.41202297212738;
6;SCHLIMM;negativ;q;0;3;3;10;q;1;0.7266643999973894;002;NSLR97;2019_Dec_05_1954;iat_vr;59.41202297212738;
6;KLEIDER;Gemacht;q;0;4;4;7;p;0;0.6858690999943065;002;NSLR97;2019_Dec_05_1954;iat_vr;59.41202297212738;
6;AUSGEZEICHNET;positiv;p;0;5;5;15;p;1;0.7508346999966307;002;NSLR97;2019_Dec_05_1954;iat_vr;59.41202297212738;
6;POSITIV;positiv;p;0;6;6;18;p;1;0.6686802999975043;002;NSLR97;2019_Dec_05_1954;iat_vr;59.41202297212738;
6;BLUME;Natur;p;0;7;7;2;p;1;0.5465771999952267;002;NSLR97;2019_Dec_05_1954;iat_vr;59.41202297212738;
6;NEGATIV;negativ;q;0;8;8;12;q;1;0.7520192000010866;002;NSLR97;2019_Dec_05_1954;iat_vr;59.41202297212738;
6;EINWANDFREI;positiv;p;0;9;9;16;p;1;0.877653299998201;002;NSLR97;2019_Dec_05_1954;iat_vr;59.41202297212738;
6;COMPUTER;Gemacht;q;0;10;10;8;q;1;0.7654150999951526;002;NSLR97;2019_Dec_05_1954;iat_vr;59.41202297212738;
6;GUT;positiv;p;0;11;11;19;p;1;0.8008842000053846;002;NSLR97;2019_Dec_05_1954;iat_vr;59.41202297212738;
6;GEBÄUDE;Gemacht;q;0;12;12;5;q;1;0.8772181000022101;002;NSLR97;2019_Dec_05_1954;iat_vr;59.41202297212738;
6;SCHLECHT;negativ;q;0;13;13;11;q;1;0.8459613999948488;002;NSLR97;2019_Dec_05_1954;iat_vr;59.41202297212738;
6;WASSER;Natur;p;0;14;14;1;p;1;0.6482123000023421;002;NSLR97;2019_Dec_05_1954;iat_vr;59.41202297212738;
6;STADT;Gemacht;q;0;15;15;6;p;0;0.41546959999686806;002;NSLR97;2019_Dec_05_1954;iat_vr;59.41202297212738;
6;LAMPE;Gemacht;q;0;16;16;9;q;1;1.4019523000024492;002;NSLR97;2019_Dec_05_1954;iat_vr;59.41202297212738;
6;SCHWACH;negativ;q;0;17;17;14;q;1;0.7974833000043873;002;NSLR97;2019_Dec_05_1954;iat_vr;59.41202297212738;
6;BAUM;Natur;p;0;18;18;0;p;1;0.8338549999971292;002;NSLR97;2019_Dec_05_1954;iat_vr;59.41202297212738;
6;TIER;Natur;p;0;19;19;3;p;1;0.8817254999958095;002;NSLR97;2019_Dec_05_1954;iat_vr;59.41202297212738;
;;;;;;;;;;;002;NSLR97;2019_Dec_05_1954;iat_vr;59.41202297212738;
7;STADT;Gemacht;q;0;0;0;6;q;1;1.2329096999965259;002;NSLR97;2019_Dec_05_1954;iat_vr;59.41202297212738;
7;POSITIV;positiv;p;0;1;1;18;p;1;0.6175089000025764;002;NSLR97;2019_Dec_05_1954;iat_vr;59.41202297212738;
7;WASSER;Natur;p;0;2;2;1;p;1;0.6165875000006054;002;NSLR97;2019_Dec_05_1954;iat_vr;59.41202297212738;
7;TIER;Natur;p;0;3;3;3;p;1;0.6341009000025224;002;NSLR97;2019_Dec_05_1954;iat_vr;59.41202297212738;
7;NEGATIV;negativ;q;0;4;4;12;q;1;0.7355969999989611;002;NSLR97;2019_Dec_05_1954;iat_vr;59.41202297212738;
7;BAUM;Natur;p;0;5;5;0;p;1;0.5787404000002425;002;NSLR97;2019_Dec_05_1954;iat_vr;59.41202297212738;
7;SCHÄDLICH;negativ;q;0;6;6;13;q;1;0.8126298999995925;002;NSLR97;2019_Dec_05_1954;iat_vr;59.41202297212738;
7;BLUME;Natur;p;0;7;7;2;p;1;0.6653797999970266;002;NSLR97;2019_Dec_05_1954;iat_vr;59.41202297212738;
7;SCHLECHT;negativ;q;0;8;8;11;q;1;0.8458940999989863;002;NSLR97;2019_Dec_05_1954;iat_vr;59.41202297212738;
7;EINWANDFREI;positiv;p;0;9;9;16;p;1;0.7632654000044568;002;NSLR97;2019_Dec_05_1954;iat_vr;59.41202297212738;
7;COMPUTER;Gemacht;q;0;10;10;8;q;1;0.8689319999975851;002;NSLR97;2019_Dec_05_1954;iat_vr;59.41202297212738;
7;SCHWACH;negativ;q;0;11;11;14;q;1;0.724590600002557;002;NSLR97;2019_Dec_05_1954;iat_vr;59.41202297212738;
7;SCHLIMM;negativ;q;0;12;12;10;q;1;0.44721539999591187;002;NSLR97;2019_Dec_05_1954;iat_vr;59.41202297212738;
7;HERVORRAGEND;positiv;p;0;13;13;17;p;1;0.8003043999997317;002;NSLR97;2019_Dec_05_1954;iat_vr;59.41202297212738;
7;STEIN;Natur;p;0;14;14;4;p;1;0.5656817999988561;002;NSLR97;2019_Dec_05_1954;iat_vr;59.41202297212738;
7;GUT;positiv;p;0;15;15;19;p;1;0.6520277000017813;002;NSLR97;2019_Dec_05_1954;iat_vr;59.41202297212738;
7;LAMPE;Gemacht;q;0;16;16;9;q;1;0.6487131000030786;002;NSLR97;2019_Dec_05_1954;iat_vr;59.41202297212738;
7;KLEIDER;Gemacht;q;0;17;17;7;q;1;0.6948478000049363;002;NSLR97;2019_Dec_05_1954;iat_vr;59.41202297212738;
7;GEBÄUDE;Gemacht;q;0;18;18;5;q;1;0.5987672000046587;002;NSLR97;2019_Dec_05_1954;iat_vr;59.41202297212738;
7;AUSGEZEICHNET;positiv;p;0;19;19;15;p;1;0.6940906999952858;002;NSLR97;2019_Dec_05_1954;iat_vr;59.41202297212738;
7;KLEIDER;Gemacht;q;1;0;20;7;q;1;0.6808720000044559;002;NSLR97;2019_Dec_05_1954;iat_vr;59.41202297212738;
7;NEGATIV;negativ;q;1;1;21;12;q;1;0.7296719000005396;002;NSLR97;2019_Dec_05_1954;iat_vr;59.41202297212738;
7;SCHÄDLICH;negativ;q;1;2;22;13;q;1;0.6123206999982358;002;NSLR97;2019_Dec_05_1954;iat_vr;59.41202297212738;
7;SCHLIMM;negativ;q;1;3;23;10;q;1;0.4678064000036102;002;NSLR97;2019_Dec_05_1954;iat_vr;59.41202297212738;
7;WASSER;Natur;p;1;4;24;1;p;1;0.6177907000019331;002;NSLR97;2019_Dec_05_1954;iat_vr;59.41202297212738;
7;EINWANDFREI;positiv;p;1;5;25;16;p;1;0.7305503000025055;002;NSLR97;2019_Dec_05_1954;iat_vr;59.41202297212738;
7;GUT;positiv;p;1;6;26;19;p;1;0.4653736999971443;002;NSLR97;2019_Dec_05_1954;iat_vr;59.41202297212738;
7;STADT;Gemacht;q;1;7;27;6;q;1;0.6151511999996728;002;NSLR97;2019_Dec_05_1954;iat_vr;59.41202297212738;
7;TIER;Natur;p;1;8;28;3;q;0;0.780887699998857;002;NSLR97;2019_Dec_05_1954;iat_vr;59.41202297212738;
7;SCHLECHT;negativ;q;1;9;29;11;q;1;1.1488394999978482;002;NSLR97;2019_Dec_05_1954;iat_vr;59.41202297212738;
7;HERVORRAGEND;positiv;p;1;10;30;17;p;1;0.7440520999953151;002;NSLR97;2019_Dec_05_1954;iat_vr;59.41202297212738;
7;BAUM;Natur;p;1;11;31;0;p;1;0.5313760999997612;002;NSLR97;2019_Dec_05_1954;iat_vr;59.41202297212738;
7;GEBÄUDE;Gemacht;q;1;12;32;5;q;1;0.7637816000060411;002;NSLR97;2019_Dec_05_1954;iat_vr;59.41202297212738;
7;STEIN;Natur;p;1;13;33;4;p;1;1.1617884000006597;002;NSLR97;2019_Dec_05_1954;iat_vr;59.41202297212738;
7;AUSGEZEICHNET;positiv;p;1;14;34;15;p;1;0.5768516000025556;002;NSLR97;2019_Dec_05_1954;iat_vr;59.41202297212738;
7;BLUME;Natur;p;1;15;35;2;p;1;0.5623140999960015;002;NSLR97;2019_Dec_05_1954;iat_vr;59.41202297212738;
7;COMPUTER;Gemacht;q;1;16;36;8;q;1;1.6345547000018996;002;NSLR97;2019_Dec_05_1954;iat_vr;59.41202297212738;
7;POSITIV;positiv;p;1;17;37;18;p;1;1.285580600000685;002;NSLR97;2019_Dec_05_1954;iat_vr;59.41202297212738;
7;SCHWACH;negativ;q;1;18;38;14;q;1;2.165749500003585;002;NSLR97;2019_Dec_05_1954;iat_vr;59.41202297212738;
7;LAMPE;Gemacht;q;1;19;39;9;p;0;0.7106180999981007;002;NSLR97;2019_Dec_05_1954;iat_vr;59.41202297212738;
;;;;;;;;;;;002;NSLR97;2019_Dec_05_1954;iat_vr;59.41202297212738;
